t,ang acc x,ang acc y,ang acc z,ang vel x,ang vel y,ang vel z,quat x,quat y,quat z,quat w,acc x,acc y,acc z,vel x,vel y,vel z,pos x,pos y,pos z,mot 1,mot 2,mot 3,mot 4,dmot 1,dmot 2,dmot 3,dmot 4,vbat
22.9925,15.06193956,-4.96977788,1.179648031,4.487200301,1.46412269,-0.140652419,-0.190380691,-0.477808496,-0.25664489,0.818272243,1.135102448,-5.388485922,25.92574281,2.204929199,11.23475963,-1.133242822,10.11039074,-0.787521823,2.252698105,1856.983424,2069.269087,1853.623597,1748.172633,1444.92316,4414.658503,-341.8738676,-3817.749387,146.3627983
22.995,10.7362111,-5.265976774,1.255284893,4.515760963,1.450988382,-0.136637406,-0.185356313,-0.477574966,-0.254561937,0.820214309,1.180674779,-5.396237271,25.87747974,2.1536402,11.2594544,-1.123858937,10.11583771,-0.75940165,2.249867938,1859.763103,2080.469066,1853.383613,1739.371754,733.7612152,4273.282648,50.22749677,-3202.476121,146.4131556
22.9975,6.871272629,-5.262643974,1.196980531,4.535116754,1.43612737,-0.132734032,-0.180311905,-0.477360399,-0.252444785,0.822121349,1.227267093,-5.40521167,25.83043685,2.102263145,11.28333048,-1.114234719,10.12116099,-0.731219471,2.247062609,1860.652231,2090.635501,1853.874734,1732.160252,-129.9271317,3498.836212,314.7844918,-2483.308508,146.4626952
23,3.969189526,-4.760914087,0.987000111,4.544022486,1.420474951,-0.128902028,-0.175255864,-0.477156381,-0.250303739,0.823992488,1.274653988,-5.416071297,25.78462992,2.050800017,11.30638223,-1.104376346,10.12635965,-0.702978199,2.244285518,1859.113468,2097.963247,1854.957536,1726.955212,-1158.430533,2210.843759,550.8483458,-1884.216225,146.5112557
23.0025,2.06792028,-3.465546149,0.594199379,4.54474091,1.402895881,-0.124428861,-0.170188045,-0.476955863,-0.248147981,0.825828082,1.322575034,-5.429018152,25.74016471,1.999252853,11.32860425,-1.094289782,10.13143246,-0.674677354,2.241538802,1854.860078,2101.689719,1856.628976,1722.739171,-1841.921027,338.6586162,646.3208169,-1293.010246,146.5684029
23.005,2.072630659,-1.782209913,0.196455713,4.539850933,1.390785514,-0.121544239,-0.165105225,-0.476745804,-0.245984161,0.827633694,1.370361407,-5.444054555,25.69724146,1.947623808,11.34999139,-1.083980857,10.13637793,-0.646316879,2.238823096,1849.903863,2099.65654,1858.18914,1720.490161,-2108.592925,-1967.323974,661.6088615,-762.9334289,146.6150904
23.0075,3.9160219,0.472481272,-0.187190811,4.534667489,1.38437577,-0.121155299,-0.159995462,-0.476522283,-0.243809657,0.829413777,1.417710186,-5.460462381,25.65618226,1.895915116,11.37053889,-1.073455142,10.14119446,-0.617897121,2.236137796,1844.317113,2091.853099,1859.93702,1718.924504,-2433.509101,-4683.830962,869.110001,-667.3499643,146.6608084
23.01,8.239990666,3.662308812,-0.506209043,4.536595296,1.387770363,-0.124327717,-0.154842722,-0.476292562,-0.241606449,0.831171402,1.464802796,-5.476854476,25.61742418,1.84412913,11.39024237,-1.062718015,10.14588131,-0.589421821,2.233482154,1837.736317,2076.237385,1862.53469,1717.153411,-2311.505656,-6595.777299,1098.796041,-700.5708673,146.7145468
23.0125,13.4168749,6.545424372,-0.572955383,4.55127985,1.401442815,-0.128714627,-0.149633809,-0.476046129,-0.239362757,0.83291702,1.510840335,-5.492278243,25.58136692,1.79226832,11.4090979,-1.051774638,10.15043634,-0.560895488,2.23085581,1832.759585,2058.874213,1865.431,1715.42165,-1858.111828,-7546.378272,1378.739383,-776.9361077,146.7583889
23.015,19.81162414,9.447930191,-0.377486564,4.585229368,1.424959936,-0.132427312,-0.144352918,-0.475770531,-0.237068326,0.834661747,1.554887823,-5.505720205,25.5484299,1.740335251,11.42710201,-1.040629949,10.15485873,-0.532322961,2.228258621,1828.445758,2038.505494,1869.428387,1713.26873,-1643.629974,-8373.139271,1806.410803,-919.7570098,146.8012496
23.0175,26.79754256,12.24271591,0.040830382,4.637374137,1.454423367,-0.134612972,-0.138984519,-0.475454519,-0.23471369,0.836415211,1.596089142,-5.516195182,25.51901624,1.688332575,11.4442517,-1.029288668,10.15914884,-0.503711052,2.225690114,1824.541435,2017.008517,1874.463054,1710.822865,-1529.554075,-8511.05106,2244.53509,-1017.08805,146.8432918
23.02,33.92151903,14.81829141,0.701393298,4.711930955,1.488963949,-0.13497192,-0.133513758,-0.475088348,-0.232286035,0.838186471,1.633645432,-5.522668987,25.49352454,1.636263006,11.46054441,-1.017755321,10.1633072,-0.475068043,2.223149702,1820.797988,1995.950239,1880.651062,1708.18329,-1689.958208,-8698.765821,2889.50473,-1183.10922,146.8843423
23.0225,41.87967893,17.59443566,1.711068506,4.82611778,1.535347658,-0.133145562,-0.127924611,-0.47466563,-0.229774247,0.83998188,1.666945818,-5.52407958,25.47232972,1.584129297,11.47597803,-1.006034273,10.16733424,-0.446398572,2.220636256,1816.091644,1973.514688,1888.910578,1704.907319,-1788.564781,-7449.334625,3040.826401,-1237.11065,146.9324501
23.025,47.51277845,19.61352513,2.668671254,4.939517502,1.578793487,-0.129124865,-0.122202871,-0.474182415,-0.227170698,0.841804692,1.695560827,-5.519519488,25.45573702,1.531934211,11.49055086,-0.994129762,10.17122966,-0.417705275,2.218148406,1811.855164,1958.703566,1895.855194,1701.997737,-1740.995364,-4854.7428,2593.692106,-1268.71968,146.971575
23.0275,51.60331858,21.28000736,3.649620979,5.067653316,1.628517342,-0.121564388,-0.116336256,-0.473638866,-0.224467225,0.843655331,1.719297364,-5.508129936,25.44399474,1.479680488,11.50426154,-0.982045949,10.17499305,-0.388989441,2.215685139,1807.386667,1949.240974,1901.879039,1698.56372,-1947.713009,-2818.32805,2197.557133,-1739.574928,147.0096931
23.03,54.31405215,22.81563945,4.728695892,5.232890195,1.694785414,-0.10826631,-0.110318919,-0.473033743,-0.221660039,0.845532662,1.737962089,-5.489461984,25.43722763,1.427370807,11.51710905,-0.969786957,10.17862405,-0.36025014,2.213246054,1802.116599,1944.611925,1906.84298,1693.299862,-1857.696338,-652.7762045,1293.841905,-2183.445012,147.054264
23.0325,54.57887784,23.68897924,5.461915097,5.375432448,1.753549535,-0.0943192,-0.104150482,-0.472365205,-0.218754475,0.847432611,1.751447464,-5.463523834,25.43541894,1.375007758,11.52909262,-0.957356924,10.18212255,-0.331484322,2.210832016,1798.098186,1945.977093,1908.348248,1687.646495,-1490.900019,1367.733123,-61.54234963,-2539.327885,147.0904258
23.035,52.7726038,24.16493,5.94697207,5.515499155,1.813042896,-0.078282019,-0.097837642,-0.471627293,-0.215762075,0.849350913,1.759510693,-5.430809683,25.43842042,1.322593823,11.54021174,-0.944760079,10.18548853,-0.302690109,2.208445266,1794.662099,1951.450591,1906.535268,1680.603223,-1293.25007,2586.945108,-1309.60484,-2997.61913,147.1255638
23.0375,49.39876613,24.3644473,6.195517374,5.64739398,1.87145907,-0.061423664,-0.091393204,-0.470814697,-0.212689792,0.851283587,1.761924395,-5.391968392,25.4460151,1.270131373,11.55046615,-0.932000828,10.1887224,-0.273867489,2.206088762,1791.631935,1958.911818,1901.800224,1672.6584,-1192.545333,3098.349325,-2575.286792,-3265.636109,147.1598488
23.04,44.47417058,24.31403381,6.157232041,5.763599275,1.927842276,-0.045100051,-0.084833241,-0.469922457,-0.209542827,0.853226916,1.758455002,-5.347737197,25.45793486,1.217622682,11.55985582,-0.919083858,10.1918244,-0.245016581,2.20376456,1788.699372,1966.942338,1893.658834,1664.275042,-1420.26639,3283.550964,-4262.689061,-3579.163763,147.1931012
23.0425,37.33476841,24.05465984,5.814485358,5.88020973,1.993535952,-0.027281781,-0.078176718,-0.468947241,-0.206330822,0.855175382,1.749003139,-5.299044028,25.47383151,1.165069947,11.56838099,-0.906014208,10.19479426,-0.216137895,2.201473704,1784.530603,1975.329573,1880.486779,1654.762581,-1753.339142,2716.237077,-5268.072206,-3253.262657,147.2318058
23.045,30.794709,23.70276235,5.320958936,5.957078461,2.047616577,-0.01383475,-0.071446981,-0.467888467,-0.203066901,0.85712128,1.733677297,-5.247038489,25.49326894,1.112475316,11.57604219,-0.892797342,10.19763165,-0.187233589,2.199216163,1779.932676,1980.523523,1867.318473,1648.008729,-2168.004931,1711.729528,-5523.325209,-2347.456569,147.2630582
23.0475,24.10487039,23.19252931,4.662860871,6.014296882,2.101400614,-0.001643292,-0.064669718,-0.466746155,-0.199763796,0.85905711,1.712613077,-5.192932409,25.51577258,1.059840933,11.58284033,-0.879439218,10.20033799,-0.158302674,2.196991739,1773.690579,1983.888221,1852.870153,1643.025298,-3126.857327,1279.274431,-6400.311239,-1764.24476,147.2932679
23.05,16.30044563,22.31969399,3.746098028,6.064220559,2.165248635,0.011097509,-0.057866282,-0.465520758,-0.196433938,0.860976254,1.68592088,-5.137698075,25.54089619,1.007169017,11.58877677,-0.865946373,10.20291482,-0.129345665,2.194800441,1764.298389,1986.919895,1835.316917,1639.187505,-3670.36625,1195.028292,-6300.775989,-1106.287164,147.3283107
23.0525,10.16902708,21.29330914,2.928356108,6.092595099,2.218337502,0.019668687,-0.051053642,-0.464214071,-0.19309147,0.862871987,1.653774577,-5.082100335,25.56820872,0.954461931,11.59385337,-0.852325977,10.20536368,-0.10036683,2.192642503,1755.338747,1989.863362,1821.366273,1637.493862,-3625.00357,1575.017357,-5275.971259,-484.8208419,147.3565032
23.055,4.555880744,19.85519761,2.125654727,6.1079762,2.271465106,0.025789489,-0.044246295,-0.462830864,-0.189747863,0.864737371,1.616483849,-5.026678455,25.5972937,0.901722265,11.59807261,-0.838585847,10.20768591,-0.071372062,2.190517816,1746.173372,1994.794982,1808.937061,1636.763401,-3532.716199,2476.280528,-4634.007393,-231.3348482,147.3836449
23.0575,-0.565539434,18.02835159,1.392788923,6.112562713,2.322176173,0.029633051,-0.03745767,-0.461378724,-0.186408816,0.866565849,1.574465999,-4.971752332,25.62775166,0.84895291,11.6014376,-0.824734434,10.20988198,-0.042367001,2.188426841,1737.675166,2002.244765,1798.196236,1636.337188,-3079.945758,3667.065632,-3827.861456,-193.297791,147.4099137
23.06,-5.036294076,15.7454181,0.811174823,6.104814168,2.366341015,0.030648093,-0.030696211,-0.459867644,-0.183077673,0.868350785,1.528247093,-4.917327328,25.65922149,0.796157141,11.60395224,-0.810780793,10.2119512,-0.013356064,2.186370116,1730.773643,2013.13031,1789.797753,1635.796912,-2592.633754,5508.677199,-3116.901274,-332.3608738,147.4351284
23.0625,-9.583854083,12.58397873,0.353637791,6.084373652,2.409885918,0.029030692,-0.023965789,-0.458306017,-0.179758372,0.870086778,1.478279952,-4.863219177,25.69137157,0.743338692,11.60562116,-0.796734518,10.21389276,0.015658932,2.184349702,1724.711998,2029.788151,1782.611729,1634.675383,-1907.316381,6550.678757,-2148.40423,-494.2818237,147.464166
23.065,-12.64311122,9.719829352,0.190239857,6.060375693,2.438209958,0.026175015,-0.017262146,-0.456700039,-0.176454293,0.871770187,1.42488863,-4.808879454,25.72394011,0.690501827,11.60644981,-0.782605656,10.2157067,0.044678295,2.182368859,1721.237061,2045.883704,1779.055732,1633.325503,-1232.03457,6646.024647,-928.6237977,-582.1466158,147.4873466
23.0675,-14.8596888,6.793475186,0.221482912,6.02941561,2.458018634,0.023773965,-0.01057626,-0.45505657,-0.173163532,0.873398347,1.368404517,-4.753434663,25.75672381,0.637651387,11.60644443,-0.768404583,10.21739208,0.073696178,2.180430859,1718.551825,2063.018274,1777.96861,1631.76465,-1258.83968,7467.699234,69.45257163,-642.2614075,147.5094703
23.07,-16.39772039,3.432004332,0.380193575,5.983061531,2.471050702,0.024248435,-0.003896466,-0.453379835,-0.169881177,0.874970639,1.309017058,-4.695872626,25.78955717,0.58479282,11.605612,-0.754141843,10.21894734,0.10270631,2.1785384,1714.942863,2083.2222,1779.402995,1630.114196,-1571.594528,7135.4593,959.3007027,-492.3710758,147.534796
23.0725,-16.62717141,0.911083986,0.51528896,5.93860238,2.473450137,0.027585459,0.002789811,-0.45167078,-0.166597901,0.876489009,1.246726396,-4.635110345,25.82230831,0.531932183,11.6039602,-0.73982795,10.22037023,0.131705572,2.176691834,1710.693852,2098.69557,1782.765114,1629.302795,-2124.084286,5686.9207,1747.303669,-135.4901961,147.5548813
23.075,-15.67389101,-1.171045888,0.553563397,5.892750231,2.469047759,0.032503997,0.009491585,-0.44993095,-0.163305598,0.877954786,1.181657936,-4.570296783,25.85481599,0.479076115,11.6014973,-0.725473172,10.2216583,0.160693668,2.174889151,1704.322441,2111.656804,1788.139513,1629.436745,-2965.536954,4637.21626,2422.770467,237.0563139,147.5739063
23.0775,-13.7459044,-2.82159423,0.473555226,5.849298688,2.460470057,0.037684416,0.016211466,-0.448161968,-0.160006299,0.879367291,1.114159543,-4.501148648,25.88683939,0.426231798,11.59823198,-0.711087319,10.22280994,0.189671516,2.17312805,1695.866167,2121.881652,1794.878966,1630.488077,-3880.76317,3319.181362,2917.828135,637.7364313,147.5920486
23.08,-10.76501832,-3.929120501,0.263121101,5.813364326,2.448691097,0.041643479,0.022936922,-0.446365235,-0.156708442,0.880724843,1.044768882,-4.428293434,25.91801918,0.373406916,11.59417326,-0.696679582,10.22382467,0.218639678,2.171406308,1684.918625,2128.25271,1802.728654,1632.625427,-5283.741187,1835.893344,3542.24353,1149.120085,147.6091186
23.0825,-6.27216638,-4.673810063,-0.05636367,5.783203575,2.432940503,0.04277343,0.029644683,-0.444544335,-0.153412637,0.882026085,0.974135467,-4.352755764,25.94798916,0.320609645,11.58933027,-0.682258471,10.22470354,0.247598511,2.169720749,1669.447461,2131.061118,1812.590184,1636.233677,-5918.592753,220.7056139,3558.321024,1444.985657,147.6283485
23.085,-2.065783228,-4.883421627,-0.290132679,5.770287549,2.419262121,0.039788348,0.0363232,-0.442706598,-0.150109616,0.883269055,0.902983611,-4.274858922,25.97657075,0.267848662,11.58371212,-0.667831858,10.22544749,0.276546239,2.168068406,1655.325662,2129.356239,1820.520259,1639.850355,-5686.255145,-1452.326214,2966.256649,1486.256363,147.6433147
23.0875,2.203263673,-4.798685058,-0.401094961,5.771115307,2.405750278,0.034538671,0.04297431,-0.440859874,-0.146785904,0.884451706,0.831985687,-4.19429375,26.00376058,0.215133141,11.57732771,-0.653407018,10.22605794,0.305476772,2.166448657,1641.016186,2123.799487,1827.421467,1643.664959,-6080.49377,-3147.270752,2673.015071,1588.374753,147.6571615
23.09,6.892186725,-4.55373456,-0.363079709,5.788842644,2.391557666,0.029236847,0.049608532,-0.439009994,-0.143425088,0.88557303,0.761641593,-4.110386512,26.0296837,0.162472681,11.57018551,-0.638990595,10.22653647,0.334380781,2.164862301,1624.923193,2113.619885,1833.885334,1647.792229,-5564.913127,-4104.856055,2021.422066,1322.877296,147.6724551
23.0925,10.09745034,-4.391897229,-0.223655558,5.816688959,2.382427479,0.027227901,0.056242863,-0.437161236,-0.14001021,0.886632462,0.692337759,-4.022245406,26.05456183,0.109877195,11.56229336,-0.624588509,10.22688388,0.363251523,2.163310173,1613.19162,2103.275207,1837.528577,1650.279345,-4231.567173,-4194.499662,1097.731842,665.2730975,147.6840734
23.095,12.26670836,-4.458334448,-0.054337323,5.853959316,2.37568869,0.02812836,0.062896447,-0.435314829,-0.13652948,0.887629937,0.624344111,-3.929093369,26.07865734,0.057356754,11.55365823,-0.610205843,10.22710029,0.392086153,2.161792872,1603.765357,2092.647386,1839.373994,1651.118595,-3371.028988,-4021.552987,469.8659357,-9.151839086,147.6944914
23.0975,13.45975748,-4.819067564,0.076171641,5.893922877,2.369450605,0.030477546,0.069584138,-0.433467184,-0.132983823,0.888566041,0.557827745,-3.830738137,26.10220255,0.004921423,11.54428598,-0.595846709,10.22718471,0.420883896,2.160310673,1596.336475,2083.167442,1839.877907,1650.233586,-2546.529436,-3199.241963,-82.70664892,-800.009493,147.703891
23.1,13.48134999,-5.595753915,0.109719607,5.931420033,2.361668148,0.032762961,0.076309511,-0.431607934,-0.129389303,0.889443238,0.492783436,-3.727961418,26.12535246,-0.047418915,11.53418115,-0.581514154,10.22713484,0.449646799,2.158862935,1591.03271,2076.651177,1838.96046,1647.118547,-1986.123524,-1876.43557,-708.2831154,-1842.102262,147.7120359
23.1025,12.29589383,-6.994255143,0.016350426,5.970490409,2.347812729,0.034626885,0.08305944,-0.429726197,-0.125773211,0.890264036,0.429339913,-3.6226274,26.14817827,-0.099654701,11.52334678,-0.567210133,10.22694916,0.478377321,2.157448873,1586.405857,2073.785264,1836.336491,1641.023075,-1534.85894,-119.3490134,-1220.753545,-2541.437884,147.7203263
23.105,10.44933318,-8.479964578,-0.164011091,5.997973858,2.330828819,0.035177863,0.089810165,-0.427822742,-0.12216073,0.891026664,0.368246757,-3.516996978,26.17077078,-0.151776793,11.51178425,-0.552935602,10.22662899,0.507075551,2.156069046,1583.358415,2076.054432,1832.856693,1634.411358,-1194.075267,1829.054386,-1673.241322,-2816.193039,147.7259761
23.1075,7.902384075,-10.17670861,-0.422815872,6.020047448,2.30788506,0.034357627,0.096543051,-0.425903815,-0.118566749,0.891727932,0.310366193,-3.412846232,26.19336886,-0.2037765,11.49949322,-0.538690733,10.22617576,0.535740596,2.154724472,1580.435481,2082.930536,1827.970285,1626.94211,-1374.394087,3817.873071,-2461.375512,-3297.013841,147.730293
23.11,4.260046561,-12.30690812,-0.785237915,6.038964619,2.275188379,0.032109344,0.103247285,-0.423977593,-0.114997553,0.892364458,0.256478151,-3.311384064,26.21635227,-0.255645601,11.48647161,-0.524475133,10.2255901,0.564373432,2.15341525,1576.486444,2095.143797,1820.549815,1617.926288,-1561.435516,4824.087084,-2932.419956,-3190.137801,147.7339041
23.1125,0.909210265,-14.05760631,-1.106106806,6.047350986,2.244235422,0.030040799,0.1099178,-0.42205229,-0.111456889,0.892932909,0.207254301,-3.213473225,26.24018974,-0.307376399,11.47271556,-0.510288004,10.22487246,0.592977248,2.152140439,1572.628304,2107.050972,1813.308185,1610.991421,-1653.36581,4689.211745,-3008.069622,-2540.123788,147.7355858
23.115,-2.538937386,-15.6610268,-1.419900436,6.047194066,2.208312377,0.028536771,0.11655436,-0.420137716,-0.107950318,0.893428688,0.163410353,-3.119731564,26.26540392,-0.358961783,11.45821951,-0.496128252,10.22402393,0.621555169,2.150898859,1568.219615,2118.589856,1805.509467,1605.225669,-1814.781362,4258.171094,-3096.818571,-2060.681093,147.735868
23.1175,-5.871309618,-17.0500142,-1.698027505,6.038158613,2.168342162,0.026336003,0.123159417,-0.418244918,-0.104481414,0.893846778,0.125634761,-3.030538755,26.29255171,-0.410395287,11.44297627,-0.481994585,10.22304596,0.650109123,2.14968944,1563.554397,2128.341827,1797.824092,1600.688015,-1852.572485,3225.884957,-2880.407577,-1502.899761,147.7349756
23.12,-8.806572471,-18.07758973,-1.874641204,6.016218503,2.125735336,0.021336879,0.129731293,-0.416382544,-0.101049853,0.894184492,0.094356017,-2.946339358,26.3221721,-0.461671134,11.42697712,-0.467885603,10.22194019,0.678637783,2.148511598,1558.956753,2134.71928,1791.107429,1597.711171,-1896.350451,1914.787289,-2518.994215,-993.8183995,147.732653
23.1225,-11.57677091,-18.77369483,-1.88872957,5.976821963,2.072617781,0.011867391,0.136263915,-0.41455478,-0.097652869,0.894442229,0.069646825,-2.867694764,26.35476571,-0.512784261,11.41021203,-0.453799892,10.22070816,0.707137209,2.147365322,1554.072645,2137.915764,1785.229121,1595.718923,-1609.231171,497.7096654,-1677.284261,-545.4535328,147.7281984
23.125,-13.13324685,-18.82271891,-1.705940835,5.937406036,2.025685216,0.00247625,0.142752004,-0.41276223,-0.094285504,0.894622239,0.05128204,-2.795024093,26.39080835,-0.563730316,11.39266977,-0.439736135,10.21935074,0.735603089,2.14625122,1550.910597,2137.207829,1782.721008,1594.983903,-1010.838883,-763.7690306,-470.1260844,-229.8240638,147.7230892
23.1275,-13.91522044,-18.23782936,-1.357039784,5.897035496,1.976116855,-0.004674478,0.149194776,-0.411002354,-0.09094126,0.89472773,0.03878084,-2.728430383,26.43075393,-0.614505633,11.37433823,-0.425693233,10.21786825,0.764030405,2.145170385,1549.01845,2134.096918,1782.878491,1594.569803,-515.4180288,-1585.252507,568.867759,-252.8853777,147.7165245
23.13,-14.15489316,-16.78417303,-0.877480543,5.851765855,1.917370161,-0.006018169,0.155594346,-0.409269146,-0.087614196,0.894763011,0.03142625,-2.667820249,26.47500865,-0.665107193,11.3552046,-0.411670391,10.2162611,0.792413378,2.144123811,1548.333507,2129.281566,1785.565347,1593.719476,-10.95024324,-1707.516617,1221.471166,-441.5087958,147.7069618
23.1325,-14.00057341,-15.01964927,-0.536308155,5.817759499,1.872453001,-0.001607342,0.161952211,-0.407554305,-0.084301537,0.894733228,0.028376049,-2.613117859,26.52390089,-0.715532594,11.33525563,-0.397667179,10.21453068,0.820747077,2.143111891,1548.963699,2125.559335,1788.985847,1592.362259,428.9011015,-1212.141887,1338.96916,-696.6627216,147.6975898
23.135,-13.78704273,-12.88400539,-0.320449367,5.787057964,1.834434393,0.003573652,0.168269538,-0.405847946,-0.081001763,0.894644199,0.028683591,-2.564206745,26.57768263,-0.765779997,11.3144779,-0.383683575,10.21267891,0.849028697,2.142134681,1550.478013,2123.220857,1792.260192,1590.236163,677.5932507,-609.6059966,1085.785241,-940.5053108,147.6867662
23.1375,-13.74263194,-10.66668135,-0.178735476,5.757047662,1.803369539,0.006002061,0.174545017,-0.404140704,-0.077713688,0.894501988,0.031404487,-2.521002904,26.63651959,-0.815848069,11.29285806,-0.369720001,10.21070774,0.877254287,2.141192391,1552.351665,2122.511305,1794.414773,1587.659732,743.7558141,160.4273816,415.3890664,-1043.528827,147.6747439
23.14,-14.12559987,-8.681656781,-0.020795366,5.725455216,1.781822166,0.00348698,0.180775157,-0.402424744,-0.074435651,0.894312524,0.035645296,-2.483421614,26.70049368,-0.865735919,11.27038309,-0.355777342,10.20861816,0.90541709,2.140285454,1554.196792,2124.022994,1794.337138,1585.018518,712.2873771,1205.419622,-656.7729947,-1021.236561,147.6612838
23.1425,-15.32357546,-7.002912805,0.324162767,5.685706754,1.766474822,-0.003742109,0.186952386,-0.400694787,-0.071167844,0.894081426,0.040655521,-2.451519583,26.76959053,-0.915443024,11.24704053,-0.341856966,10.20641025,0.93351098,2.139414439,1555.913102,2128.538403,1791.130908,1582.553549,509.24224,2124.206563,-1687.496814,-674.3796042,147.6434816
23.145,-17.09015815,-6.456144274,0.77873886,5.652447413,1.759486157,-0.009349511,0.193061884,-0.398950847,-0.067915473,0.893813228,0.046029698,-2.425705365,26.84368301,-0.964969164,11.22281875,-0.327960721,10.20408406,0.961533918,2.138579639,1556.743003,2134.644027,1785.899654,1581.64662,200.1240072,2965.581365,-2545.924306,-20.45100564,147.6272819
23.1475,-19.77676992,-6.985421328,1.339420646,5.617694919,1.752037018,-0.008536251,0.199086614,-0.39719877,-0.064686345,0.893510378,0.051717915,-2.406444154,26.92256168,-1.014314347,11.19770715,-0.314090957,10.20163937,0.989491516,2.137780878,1556.913722,2143.36631,1778.401286,1582.451294,-53.22935195,4491.441249,-3695.433924,810.8249295,147.6096801
23.15,-24.05013197,-8.900000455,1.965879453,5.566999852,1.736799201,0.000512808,0.205011607,-0.395448824,-0.061487603,0.893173278,0.057909663,-2.393995502,27.00596179,-1.063478729,11.17169646,-0.300250577,10.19907525,1.017393731,2.137017596,1556.476856,2157.101233,1767.422484,1585.700745,-240.3126522,5594.755635,-4259.288481,1569.412666,147.5869562
23.1525,-28.33687883,-11.48461509,2.339630312,5.51167029,1.71783193,0.011168379,0.210826704,-0.393715085,-0.058323573,0.892800111,0.064975266,-2.38824036,27.09358277,-1.112462553,11.1447789,-0.286443058,10.19639014,1.045247512,2.136289253,1555.712159,2171.340088,1757.104844,1590.298358,-357.3948883,6232.966943,-4247.76158,2171.400908,147.5667005
23.155,-33.05790851,-14.91199051,2.506986537,5.440320926,1.690221746,0.021689595,0.216525303,-0.392016129,-0.055198062,0.892386675,0.073542322,-2.38879133,27.18508497,-1.161266111,11.11694849,-0.272672454,10.19358248,1.073055138,2.135595588,1554.689882,2188.266067,1746.183676,1596.55775,-432.7706159,7126.923258,-4354.467296,2697.303665,147.5450954
23.1575,-37.83945949,-18.84234644,2.529584579,5.35644994,1.653062611,0.030396463,0.222098566,-0.390375646,-0.052122033,0.891926911,0.084650608,-2.395448566,27.28005875,-1.209889752,11.08820115,-0.258943343,10.19065177,1.100815238,2.134936405,1553.548306,2206.974705,1735.332507,1603.784876,-470.4298921,7735.717838,-4134.748269,2993.89145,147.5223852
23.16,-42.30968856,-23.09039029,2.465416419,5.258225763,1.603515084,0.034888952,0.227536155,-0.388818345,-0.049112427,0.891414526,0.099516776,-2.408183082,27.37803738,-1.258333897,11.0585349,-0.245260784,10.18759823,1.128520811,2.134311464,1552.337732,2226.944657,1725.509935,1611.527207,-537.3558521,8773.432809,-3775.221,3342.279972,147.4983566
23.1625,-46.83658133,-28.14928447,2.407944592,5.12570931,1.529886259,0.036642639,0.232830353,-0.387364994,-0.046184487,0.890844532,0.119143719,-2.426819759,27.4785376,-1.306599057,11.02794999,-0.23163031,10.18442173,1.156159485,2.133720728,1550.861526,2250.841869,1716.456402,1620.496276,-539.9822528,8486.442691,-2614.807798,3108.625995,147.4680133
23.165,-49.60321519,-32.03020693,2.421414427,5.006323024,1.456195745,0.038125075,0.237979338,-0.38602792,-0.043347194,0.890214499,0.143996604,-2.450819048,27.58109356,-1.354685862,10.99644899,-0.218057929,10.18112117,1.183717824,2.133164862,1549.637821,2269.37687,1712.435896,1627.070337,-481.8362011,6783.147122,-601.6704794,2325.286897,147.4414788
23.1675,-51.02706032,-35.22218876,2.478438457,4.880310364,1.370725211,0.042292693,0.242988279,-0.384807924,-0.040601411,0.889525524,0.173792272,-2.479213191,27.68528003,-1.402595112,10.96403685,-0.20455008,10.17769412,1.211185465,2.132644855,1548.452345,2284.757604,1713.44805,1632.12271,-502.3628124,5643.994962,1823.179457,1803.843509,147.4136567
23.17,-50.94060999,-37.93259441,2.510430525,4.724805939,1.25978909,0.051232803,0.247867453,-0.38369363,-0.037939444,0.888782862,0.20743444,-2.510707452,27.79072278,-1.45032787,10.93072088,-0.191113558,10.17413705,1.238555123,2.132161533,1547.126007,2297.596845,1721.551793,1636.089554,-460.8242453,3526.438475,4158.930052,1110.327642,147.3787882
23.1725,-49.2864686,-39.08905697,2.441901986,4.59760157,1.164186206,0.060695504,0.252632093,-0.382667248,-0.035346511,0.887993221,0.243363168,-2.543678004,27.89711425,-1.497885553,10.89651065,-0.177755384,10.17044678,1.26582263,2.131715675,1546.148224,2302.389797,1734.2427,1637.674349,-355.5164058,505.9303652,6182.379091,340.4938174,147.348499
23.175,-46.00807357,-38.97033612,2.239847977,4.48047917,1.067489566,0.069236828,0.257303104,-0.381713049,-0.032805611,0.887160599,0.280138983,-2.57616993,28.00422147,-1.545270044,10.86141785,-0.164482669,10.16662216,1.292985101,2.131308015,1545.348425,2300.126497,1752.463689,1637.792023,-290.1126266,-2098.239195,7981.735657,-120.586079,147.3169332
23.1775,-41.4634056,-37.73879787,1.94264596,4.37281593,0.971187643,0.075639215,0.261900785,-0.380821295,-0.030305639,0.886285986,0.316802574,-2.606373374,28.11184345,-1.592483786,10.8254561,-0.151302458,10.16266537,1.320039405,2.130938967,1544.697661,2291.898601,1774.151379,1637.071418,-237.1960677,-4592.087243,9120.672375,-392.6211717,147.2843103
23.18,-35.53584033,-35.15644312,1.582858765,4.273417812,0.877992284,0.080016351,0.266438374,-0.379988306,-0.027846962,0.885368986,0.352969891,-2.633095294,28.21976199,-1.639529854,10.78864073,-0.138221594,10.15858281,1.346984719,2.13060882,1544.162444,2277.166061,1798.06705,1635.828918,-242.4062471,-7605.0739,10465.18618,-567.3028359,147.2504159
23.1825,-27.11677303,-30.58932489,1.159834568,4.166777171,0.773729515,0.083529045,0.270924026,-0.379210924,-0.02543447,0.884409877,0.388404654,-2.655567359,28.3277549,-1.686411976,10.75098852,-0.12524664,10.15438299,1.37382359,2.13031784,1543.48563,2253.873231,1826.477309,1634.234904,-286.3638992,-9079.48656,9967.896622,-563.5376462,147.2082782
23.185,-19.38103602,-25.72866375,0.87290143,4.097604502,0.697217988,0.084821961,0.27536646,-0.378478861,-0.023065801,0.883411657,0.422374248,-2.672965845,28.43564044,-1.733134497,10.71251755,-0.112383875,10.15007283,1.400559592,2.130065579,1542.730625,2231.768628,1847.906534,1633.011229,-379.4595238,-8853.220124,7726.780287,-470.7608808,147.1719484
23.1875,-11.56175997,-20.11412306,0.710674633,4.057459886,0.636869159,0.084688215,0.279775807,-0.377776022,-0.020730734,0.882379313,0.453706433,-2.684345073,28.54327463,-1.779702309,10.6732469,-0.099639299,10.14565659,1.427195152,2.129849728,1541.588332,2209.607131,1865.111211,1631.8811,-617.3749796,-9145.899126,6346.690468,-530.6148788,147.1343656
23.19,-3.027787548,-13.05492409,0.691740766,4.043214788,0.58702015,0.083426593,0.284160111,-0.377087717,-0.018418442,0.88131768,0.481325839,-2.688923936,28.65050455,-1.826120755,10.63319648,-0.08701862,10.14113701,1.453730599,2.129665479,1539.64375,2186.039132,1879.639986,1630.358155,-802.6362697,-7766.09155,4266.548706,-645.534202,147.087829
23.1925,2.695800061,-7.361353045,0.811963763,4.05579239,0.564171865,0.082181648,0.288525652,-0.376404034,-0.016123379,0.880229805,0.504580768,-2.686164486,28.75714128,-1.872395515,10.59238682,-0.07452724,10.13651634,1.480164924,2.129506873,1537.575151,2170.776673,1886.443954,1628.653429,-876.1677885,-4894.39094,1712.607343,-844.243701,147.0478611
23.195,6.32705414,-2.406018853,1.012864195,4.084670131,0.55815983,0.083258809,0.292878111,-0.375718791,-0.013842726,0.879117196,0.523142601,-2.675663739,28.86295871,-1.918532449,10.55083882,-0.062170264,10.13179572,1.506497513,2.129368936,1535.262911,2161.567177,1888.203023,1626.136936,-907.4326715,-2563.054592,13.23800018,-1183.76951,147.0066748
23.1975,7.928912373,1.575530881,1.207836912,4.117392859,0.564131735,0.08748811,0.297216615,-0.375028234,-0.011572759,0.877982521,0.536800163,-2.657429124,28.96766341,-1.964537433,10.50857362,-0.04995253,10.12697495,1.532728185,2.129248803,1533.037988,2157.9614,1886.510144,1622.734581,-783.8900833,-60.32896347,-1277.58896,-1604.817185,146.9644902
23.2,6.978331789,4.040501231,1.311624339,4.145250679,0.581708191,0.094219337,0.301530928,-0.374329737,-0.009309317,0.876831201,0.545360794,-2.632064287,29.07087718,-2.010416169,10.46561244,-0.037878632,10.1220529,1.55885636,2.129146245,1531.343461,2161.265533,1881.815078,1618.11285,-519.6820453,2977.523106,-2439.788462,-2321.04075,146.9211184
23.2025,2.99184109,4.980685677,1.277569501,4.167037334,0.609409879,0.102743484,0.305803826,-0.373619887,-0.007048788,0.875671539,0.548570251,-2.600674209,29.17215081,-2.056173996,10.42197644,-0.025952979,10.11702714,1.584880974,2.129062783,1530.439577,2172.849015,1874.311202,1611.129377,-88.28602945,5385.990296,-2849.303453,-2770.58351,146.8677238
23.205,-2.516765377,4.048532764,1.133138711,4.174361409,0.631666482,0.108238408,0.310012395,-0.372897568,-0.004791431,0.874513046,0.546372796,-2.564837297,29.27097006,-2.101815696,10.37768665,-0.014179863,10.11189414,1.610801647,2.12900007,1530.902031,2188.195484,1867.568561,1604.259933,463.137403,7062.499168,-2609.208757,-2873.391772,146.8221242
23.2075,-9.979807711,1.48982149,0.943029638,4.167332452,0.647417659,0.109688107,0.314132726,-0.372166265,-0.002544109,0.87336385,0.53915227,-2.52637028,29.3667838,-2.147345309,10.33276391,-0.002563544,10.10664981,1.636619195,2.12896011,1532.755264,2208.161511,1861.265158,1596.762419,1104.990862,9415.05831,-2568.321526,-3253.10135,146.7754046
23.21,-20.67855843,-3.065326116,0.764957952,4.135161067,0.655107131,0.107485301,0.31814403,-0.371432892,-0.000319432,0.872229803,0.527686023,-2.487072564,29.45904108,-2.192765965,10.28722877,0.008891666,10.1012903,1.662333469,2.128945782,1536.426985,2235.270776,1854.726953,1587.994426,1521.302576,10066.04454,-2226.029933,-2988.482113,146.7180798
23.2125,-30.54342186,-7.687533424,0.698038711,4.084987486,0.648080387,0.104719059,0.322029219,-0.370709599,0.001864084,0.871113492,0.513266306,-2.44867015,29.54720854,-2.23807975,10.24110153,0.02018133,10.09581358,1.687942202,2.128960646,1540.361777,2258.491734,1850.135009,1581.820008,1633.355742,8902.153544,-1710.356714,-1980.120147,146.6692853
23.215,-40.63056388,-12.56704208,0.691365007,4.007433133,0.621737107,0.10337261,0.325776879,-0.370013709,0.003984406,0.870013484,0.497665848,-2.412637148,29.63080107,-2.283287599,10.19440213,0.031300844,10.09021987,1.713440493,2.129008699,1544.593764,2279.781543,1846.175169,1578.093825,1631.678349,7838.446767,-1513.693301,-903.9591857,146.619463
23.2175,-50.21435931,-17.18472483,0.667432441,3.903137352,0.579525811,0.104091051,0.329383663,-0.369361645,0.006024462,0.868925925,0.482605538,-2.379907325,29.70942749,-2.328389238,10.14715016,0.042245414,10.08450956,1.73882021,2.129093736,1548.520169,2297.683968,1842.566542,1577.300212,1364.745879,6034.409656,-1340.065057,540.0746866,146.5688145
23.22,-58.27127866,-20.97962008,0.511560402,3.763877797,0.523202105,0.107805866,0.332853374,-0.368763663,0.007976823,0.867846995,0.469313364,-2.350851908,29.78280846,-2.373383152,10.0993648,0.053010075,10.07868168,1.764071874,2.129218871,1551.417493,2309.953592,1839.474844,1580.794199,900.358334,3936.291545,-1105.464863,2565.545053,146.5171997
23.2225,-65.05285097,-24.10394398,0.046721871,3.564016893,0.44442337,0.114965935,0.336191317,-0.368224677,0.009839164,0.866774616,0.458609496,-2.325691112,29.8507496,-2.418266624,10.05106469,0.063589768,10.07273474,1.789188603,2.129385758,1553.021961,2317.365426,1837.039218,1590.127937,217.4618672,1573.003039,-514.3975719,4167.405232,146.4541809
23.225,-67.67376037,-25.32180849,-0.609277117,3.381292375,0.372642521,0.121009116,0.339399759,-0.367748317,0.011607335,0.86570841,0.451255126,-2.304873637,29.91311357,-2.463035794,10.00226787,0.073979446,10.06666759,1.814169317,2.129593217,1552.504802,2317.818607,1836.902856,1601.631225,-601.2590862,-729.834321,565.2965417,5089.392739,146.400789
23.2275,-66.76657523,-25.07360401,-1.487124562,3.193206677,0.301810233,0.124168626,0.342481755,-0.367337412,0.013276897,0.864647886,0.447981756,-2.288805902,29.96984544,-2.507685753,9.952991653,0.084174177,10.06047918,1.839016707,2.129837215,1550.015665,2313.716254,1839.865701,1615.574901,-1478.835005,-2407.069101,2233.824288,6248.897785,146.3465157
23.23,-61.70176433,-23.29346686,-2.599212445,2.973725296,0.227117541,0.121655042,0.345446416,-0.366991279,0.014848181,0.863591411,0.44925956,-2.277440878,30.02100728,-2.552210642,9.903252526,0.09416921,10.05416922,1.863733366,2.130112458,1545.110627,2305.783261,1848.071978,1632.875714,-2012.181162,-3080.388989,3853.172274,6098.572497,146.2803993
23.2325,-54.63962626,-20.8329033,-3.369409153,2.809909941,0.176171186,0.11331381,0.348310028,-0.366704869,0.016325237,0.862536074,0.455277675,-2.270231167,30.06677814,-2.596603769,9.853066069,0.103960049,10.04773933,1.888321377,2.130414107,1539.954759,2298.314309,1859.131562,1646.067763,-2110.442416,-2860.775258,5235.576476,4687.811939,146.2245
23.235,-45.63161767,-17.68087939,-3.719694877,2.682572597,0.135265576,0.099117355,0.351097244,-0.366470877,0.017714281,0.861476269,0.466116742,-2.266067863,30.10745026,-2.640857745,9.802446839,0.113542529,10.04119253,1.912783058,2.130738578,1534.558415,2291.479385,1874.24986,1656.314774,-2055.489131,-2508.868987,6553.50429,3458.875166,146.1677922
23.2375,-35.97154727,-14.15275438,-3.569916711,2.589678636,0.100829087,0.081834804,0.353837048,-0.366282242,0.019025544,0.860404201,0.481802593,-2.263462545,30.14340769,-2.68496463,9.751408275,0.122912894,10.03453214,1.937119727,2.131082613,1529.677314,2285.769964,1891.899083,1663.362139,-1678.470285,-2013.045266,7349.527498,2010.472628,146.1104293
23.24,-26.70468256,-10.34073408,-2.741887224,2.534721343,0.073390579,0.064991444,0.356554604,-0.366130955,0.020272954,0.859313733,0.502139828,-2.261059282,30.17508307,-2.728916087,9.699962598,0.13206787,10.02776215,1.961329507,2.131442934,1526.166064,2281.414159,1910.997498,1666.367137,-1111.525064,-1747.142699,8259.975572,507.7383908,146.0522908
23.2425,-17.29730634,-5.604997795,-1.043629057,2.504060492,0.048498087,0.051000883,0.35926716,-0.366006088,0.02147272,0.858202955,0.526572512,-2.257933058,30.20292947,-2.772703531,9.648120727,0.141004736,10.02088702,1.985408157,2.131817303,1524.119688,2277.034251,1933.198961,1665.900831,-376.9093937,-1608.835246,7702.472894,-677.5026887,145.981641
23.245,-11.47619399,-1.646887265,0.78436714,2.497931393,0.035947362,0.046846226,0.36197931,-0.365896859,0.022644781,0.857074916,0.554263468,-2.25382994,30.22739323,-2.816318267,9.595892219,0.149721352,10.01391035,2.00935251,2.132204762,1524.281517,2273.369982,1949.509862,1662.979623,384.1471545,-1588.073131,5811.795393,-1441.600512,145.9220355
23.2475,-7.983881757,2.133520167,2.743200505,2.496827627,0.034236056,0.050997881,0.364677798,-0.365794122,0.023812914,0.855939246,0.584105752,-2.249476667,30.24888348,-2.859751621,9.543285232,0.158216169,10.00683441,2.033161374,2.132605095,1526.040424,2269.093885,1962.257938,1658.692829,996.174659,-1998.695193,4689.780682,-1901.88265,145.8616741
23.25,-6.221910032,6.177955221,4.859042087,2.48997249,0.043297013,0.06588664,0.367335573,-0.365690173,0.02499717,0.85481083,0.614941522,-2.246500068,30.26776715,-2.902995039,9.490306535,0.166488186,9.999659822,2.056834653,2.1330183,1529.26239,2263.376506,1972.958765,1653.47021,1248.493144,-2048.895199,3211.444428,-1727.708243,145.7883643
23.2525,-6.356177635,8.891650452,6.166455402,2.47698,0.05892188,0.085777099,0.369924908,-0.365582151,0.026206817,0.853703047,0.646105058,-2.24674278,30.28439975,-2.946040181,9.436961553,0.174536877,9.992385165,2.080374059,2.133444754,1532.28289,2258.849409,1978.31516,1650.054287,1160.990397,-1481.87792,1566.197646,-972.3347387,145.7265382
23.255,-7.547475768,10.59099235,6.776363965,2.455383794,0.086725574,0.109631656,0.372426221,-0.36547284,0.027442444,0.852623652,0.677533321,-2.251658107,30.29915634,-2.988878998,9.383254462,0.182362087,9.985007411,2.103782729,2.133885713,1535.067342,2255.967117,1980.789754,1648.608536,1021.636885,-656.9952447,670.5591416,-140.7182068,145.6639407
23.2575,-9.178770099,11.20820242,6.734719209,2.426587084,0.125919325,0.13327859,0.37482907,-0.365365134,0.02869893,0.851576622,0.709380602,-2.262213635,30.31243715,-3.031503819,9.329188288,0.189963953,9.97752263,2.127063197,2.134343757,1537.391074,2255.564433,1981.667956,1649.350696,801.9393336,623.3886731,170.0869418,902.1770139,145.6006949
23.26,-10.92302484,10.36248321,5.938821815,2.390852073,0.171273085,0.153972944,0.377133158,-0.36525788,0.029966224,0.850563438,0.741773508,-2.278831219,30.32467117,-3.073907439,9.274765022,0.197342858,9.969927032,2.150215969,2.134822697,1539.077039,2259.08406,1981.640188,1653.119421,620.4672579,2491.79124,37.51075301,2377.711777,145.536655
23.2625,-12.81567466,7.781429664,4.277315908,2.346957242,0.219606516,0.173076912,0.379346432,-0.365147313,0.031230994,0.849583212,0.774839724,-2.30144772,30.33630729,-3.116083232,9.219985743,0.204499401,9.962217612,2.173240318,2.135325928,1540.493411,2268.023389,1981.85551,1661.239255,452.4573247,3920.188357,298.0443857,3533.449468,145.4588711
23.265,-14.12684345,4.685934019,2.489789812,2.31520222,0.246492697,0.182903907,0.381479038,-0.365027696,0.032481437,0.848634866,0.80855071,-2.329774946,30.34779722,-3.158025257,9.164850742,0.211434409,9.954392348,2.196135102,2.135854712,1541.339325,2278.685002,1983.13041,1670.786669,300.789788,4592.171305,915.8161867,4287.553129,145.393257
23.2675,-15.11130737,1.291572932,0.547666198,2.287807814,0.251127231,0.18537638,0.383540519,-0.364890723,0.033712212,0.847718406,0.842523752,-2.363369203,30.35959526,-3.199728365,9.109359659,0.218148953,9.946451081,2.218897838,2.136408019,1541.99736,2290.984245,1986.434591,1682.677021,249.9672194,5296.087072,2048.511827,5602.929557,145.3268005
23.27,-15.77266301,-2.240584036,-1.651532432,2.250815568,0.229761003,0.178981774,0.385541596,-0.364726694,0.034924173,0.846833577,0.876124481,-2.401518432,30.37216501,-3.241188304,9.053511613,0.224644368,9.938395856,2.241525814,2.136983653,1542.589161,2305.165437,1993.372969,1698.801317,163.8501979,4773.495425,3054.898657,6089.052759,145.246057
23.2725,-15.68692575,-4.221728266,-3.184323593,2.211509153,0.198023318,0.167039168,0.387496341,-0.364526096,0.036121211,0.845978282,0.908676922,-2.443166451,30.38598027,-3.282401804,8.997305343,0.230922286,9.930230338,2.264017276,2.137579779,1542.816611,2314.851723,2001.709084,1713.122285,-0.819996414,3182.359028,3787.464586,5765.609639,145.1779247
23.275,-14.65759785,-4.941475862,-4.266627526,2.164814773,0.166848891,0.151612891,0.389423486,-0.364282271,0.037307246,0.845146924,0.939725797,-2.486882601,30.40152028,-3.323366661,8.940739331,0.236984663,9.921959017,2.286370327,2.138195231,1542.585061,2321.077233,2012.310292,1727.629365,-189.2493741,1879.321842,4499.084748,5742.963913,145.1088943
23.2775,-12.70384518,-4.702616632,-4.951776588,2.118319314,0.143640368,0.135672021,0.391346264,-0.363995023,0.038485447,0.844328919,0.969276805,-2.530870627,30.41926111,-3.364081791,8.883811912,0.242833819,9.913586149,2.308582918,2.138828676,1541.870364,2324.248332,2024.204508,1741.837104,-398.9773217,657.6433867,4884.903907,5530.213875,145.0391033
23.28,-9.644293945,-3.655600466,-5.215968418,2.081099842,0.132430962,0.121241974,0.393288342,-0.363672,0.039658162,0.843509972,0.997828339,-2.573228284,30.43965185,-3.404547267,8.826521367,0.24847247,9.905115067,2.330653582,2.139478554,1540.590175,2324.365449,2036.734812,1755.280434,-642.2776715,-361.6945195,5412.192318,5669.840098,144.968373
23.2825,-4.940781727,-2.025649777,-5.187773889,2.0528899,0.131284666,0.106771448,0.395268173,-0.363327346,0.040826479,0.842675301,1.026227903,-2.61233641,30.4630832,-3.444764336,8.768865989,0.25390376,9.896547942,2.352580312,2.140143371,1538.658975,2322.439859,2051.265469,1770.186305,-705.4972091,-814.9562392,5085.054749,5227.425063,144.8823788
23.285,-0.458495573,-0.731424006,-4.991860462,2.042769116,0.137692988,0.0961847,0.397297071,-0.362979051,0.041990296,0.84181169,1.0554895,-2.647014003,30.48987527,-3.484735399,8.710844129,0.259131279,9.887885563,2.374360078,2.140821026,1537.062689,2320.290668,2062.160086,1781.41756,-532.2990838,-743.9687952,3975.069912,4203.904357,144.8097598
23.2875,4.178772156,0.184068416,-4.735963013,2.047325113,0.146870745,0.086353049,0.399381781,-0.362644957,0.043148796,0.840908032,1.086586796,-2.676389865,30.52029132,-3.524463966,8.652454223,0.264159051,9.879127389,2.395990721,2.14150872,1535.99748,2318.720015,2071.140819,1791.205827,-224.6685661,-414.5875082,3455.441949,3904.91219,144.7361144
23.29,9.389533087,0.691966759,-4.460533311,2.072772799,0.156453926,0.075753501,0.401526013,-0.362337509,0.044300984,0.839956888,1.120157993,-2.699845444,30.5545514,-3.563954585,8.593694802,0.268991506,9.870273036,2.417471581,2.142204577,1535.939346,2318.217731,2079.437295,1800.94212,252.7006805,61.29207848,2655.723477,3175.445677,144.6465122
23.2925,13.0811084,0.629800733,-4.302595928,2.108720284,0.161641868,0.067578695,0.403730307,-0.362059466,0.045446958,0.838956371,1.15622097,-2.717038612,30.59284202,-3.603212742,8.534564481,0.273633442,9.861323479,2.438801599,2.142908219,1537.260983,2319.026476,2084.419436,1807.083055,859.9538662,514.6238608,1679.32354,1989.587868,144.5707895
23.295,15.79545078,0.15995317,-4.234924045,2.154015962,0.163750387,0.05875886,0.405992665,-0.361804421,0.046586903,0.837909719,1.194243686,-2.727892866,30.63531831,-3.642244748,8.475061919,0.278089959,9.852280956,2.459978502,2.143620114,1540.239115,2320.79085,2087.833913,1810.89006,1468.470769,785.74431,1182.265294,1126.660005,144.4939335
23.2975,17.59874615,-0.544282788,-4.229865647,2.202677632,0.163807953,0.048622326,0.408307636,-0.361559757,0.047721004,0.836824508,1.233306849,-2.732647802,30.68209866,-3.681057604,8.415185768,0.282366399,9.843147774,2.481000138,2.144340706,1544.603337,2322.955197,2090.330763,1812.716355,2047.786409,868.5108851,842.6363154,304.4249618,144.4161067
23.3,18.32835786,-1.393553723,-4.275202761,2.251011052,0.161137806,0.03751489,0.410667771,-0.361310848,0.048851255,0.835710054,1.272319256,-2.731705931,30.7332754,-3.71965886,8.354934607,0.286468264,9.833925042,2.501865738,2.145069851,1550.478047,2325.133404,2092.047095,1812.412185,2864.065651,874.0285562,592.9402074,-479.9825063,144.3370684
23.3025,18.12727533,-2.403203377,-4.366219931,2.305212368,0.15370869,0.02451777,0.413068121,-0.361047953,0.049980795,0.834572313,1.310507929,-2.725316287,30.7889271,-3.758056459,8.294306868,0.290401124,9.824613169,2.522575541,2.145806952,1558.923665,2327.32534,2093.295464,1810.316442,3270.21039,704.7540585,283.7070776,-908.8416949,144.2407644
23.305,17.22864579,-3.121693373,-4.467113698,2.346846613,0.144692415,0.014246947,0.415505848,-0.360766038,0.051113385,0.833414197,1.347414381,-2.713613237,30.84911807,-3.796258586,8.23330075,0.294170527,9.815212061,2.543130348,2.146550834,1566.829099,2328.657175,2093.46563,1807.867976,3274.154076,441.9266136,-209.3393151,-933.0098178,144.1592515
23.3075,15.77254176,-3.61107615,-4.589634902,2.384932645,0.134074937,0.004112357,0.417975816,-0.360461013,0.052251676,0.832239497,1.382651706,-2.696964357,30.91388207,-3.834273517,8.171914119,0.297781923,9.805720761,2.563530733,2.147299735,1575.294436,2329.534973,2092.248767,1805.651393,3787.987145,341.8477064,-993.3097547,-723.4593318,144.0763748
23.31,13.59048999,-3.869282552,-4.746503787,2.424888451,0.11956842,-0.008560445,0.420467774,-0.360131845,0.053394317,0.831053558,1.41606432,-2.676201004,30.9832009,-3.872109493,8.110144415,0.301240592,9.796138042,2.583776312,2.148052071,1585.769035,2330.366413,2088.499081,1804.250679,3858.856499,323.7132396,-1830.578618,-198.6422444,143.9752775
23.3125,11.5396006,-3.803381022,-4.865053293,2.452200372,0.107061195,-0.020246529,0.422969061,-0.359782208,0.054537107,0.829861138,1.447834785,-2.652403129,31.05702413,-3.909774589,8.047988556,0.30455157,9.786462868,2.603866248,2.148807401,1594.588718,2331.153539,2083.095874,1804.658182,3527.156963,383.6537826,-2631.53046,549.7644119,143.8896068
23.315,9.360326275,-3.491159791,-4.94314721,2.474467711,0.097379307,-0.032796843,0.425469935,-0.359418888,0.055676406,0.828664205,1.478377501,-2.626479854,31.13531525,-3.947276608,7.985442869,0.307719565,9.776694472,2.623799698,2.149566613,1603.40482,2332.284682,2075.341429,1806.999502,3527.38061,518.5337121,-3391.664306,1245.748708,143.8023952
23.3175,7.123187862,-3.037221778,-4.973014681,2.494413392,0.091913642,-0.045169665,0.427966172,-0.359046856,0.056810254,0.827462658,1.508056902,-2.598993621,31.21808423,-3.984622989,7.922503021,0.310748891,9.766832208,2.64357582,2.150331141,1612.225621,2333.746208,2066.137553,1810.886926,3544.608232,642.4610449,-3791.03603,1848.03223,143.7138579
23.32,4.85612487,-2.476397404,-4.936835443,2.510984343,0.089846126,-0.056964727,0.430461797,-0.358668,0.057937146,0.826253522,1.537193581,-2.569995284,31.30540458,-4.021820747,7.859163957,0.31364343,9.756875432,2.66319377,2.151102782,1621.127861,2335.496987,2056.386249,1816.239663,3957.127517,790.5593924,-4013.348733,2530.088392,143.6236662
23.3225,2.17933159,-1.691341279,-4.810759601,2.522414619,0.087804323,-0.070707391,0.432968915,-0.358279752,0.059054267,0.825031726,1.566031261,-2.539061744,31.39741404,-4.058876438,7.795419831,0.316406627,9.7468235,2.682652706,2.151883532,1632.011259,2337.699005,2046.070809,1823.537368,4027.253253,797.6347468,-3255.339527,2685.681277,143.5134552
23.325,0.068016729,-0.896508948,-4.630243542,2.52319304,0.085594053,-0.082052831,0.435498862,-0.357873525,0.060160428,0.823795155,1.594404965,-2.505814106,31.49429236,-4.095796164,7.731263943,0.319041528,9.736675766,2.701951784,2.15267538,1641.264127,2339.485161,2040.109551,1829.668069,3713.704426,703.5918536,-1581.651288,2327.731028,143.4199157
23.3275,-1.828612863,0.136665666,-4.3619865,2.517347018,0.081617405,-0.093326687,0.438053564,-0.357443239,0.061253315,0.822545674,1.622173885,-2.470492955,31.59619911,-4.132585593,7.666688666,0.32155085,9.726431589,2.721090162,2.153478442,1650.579781,2341.216964,2038.162553,1835.176023,4044.001471,795.0981272,148.9729887,2216.870506,143.3245639
23.33,-3.809801647,1.734966564,-3.933738241,2.506968966,0.074741883,-0.106044039,0.440620368,-0.35699087,0.062327331,0.821289644,1.649522901,-2.434320581,31.70323667,-4.169250005,7.601685398,0.323937053,9.716090357,2.740066996,2.154290978,1661.484135,2343.460652,2040.854416,1840.752422,3884.415078,900.3031988,1717.011292,1913.905417,143.2079935
23.3325,-5.219149799,3.346575213,-3.493327373,2.497303541,0.071646696,-0.115242112,0.44317899,-0.356520419,0.063381285,0.820036329,1.676490758,-2.398909367,31.81552684,-4.205794342,7.536244545,0.326202401,9.705651877,2.758881444,2.155113155,1670.001856,2345.71848,2046.747609,1844.74555,3204.64356,1028.703821,2834.020865,1610.231531,143.1090271
23.335,-6.389028907,5.082828481,-2.980160134,2.487097451,0.079038714,-0.1229317,0.445711722,-0.356032684,0.06442351,0.818794336,1.702674045,-2.365485928,31.93328692,-4.242223264,7.470355528,0.328349001,9.695117059,2.777532663,2.155946644,1677.507352,2348.604171,2055.02452,1848.803579,2781.748261,1259.651887,3441.731171,1793.777231,143.0081316
23.3375,-7.339964493,6.719236349,-2.418895614,2.47624329,0.096977346,-0.129603035,0.448207945,-0.355523374,0.065466637,0.817570375,1.727343368,-2.334698427,32.05683468,-4.278541215,7.404006806,0.330378858,9.68448798,2.796019809,2.156792961,1683.910598,2352.016739,2063.956265,1853.714436,2257.770209,1446.579299,3426.262855,2371.749359,142.9056136
23.34,-7.930946742,7.99791543,-1.815727942,2.461147081,0.122953699,-0.135076947,0.450665382,-0.354988438,0.06651993,0.816366826,1.750017256,-2.306650296,32.18654914,-4.31475251,7.337185889,0.332293955,9.67376741,2.81434204,2.157651689,1688.796203,2355.837067,2072.155835,1860.662326,1791.957767,1680.055005,3135.356074,3731.788096,142.8011142
23.3425,-8.017082117,8.938497525,-1.070727479,2.432509465,0.156542062,-0.139831356,0.45308689,-0.354425324,0.067587369,0.815183063,1.770544258,-2.281144649,32.32284207,-4.350861426,7.269879342,0.334096353,9.662957658,2.832498518,2.158519953,1692.870387,2360.417014,2079.633045,1872.373377,1220.158006,1615.128119,2210.573437,4925.794025,142.6733953
23.345,-7.428799095,9.208699181,-0.45909854,2.400317881,0.183461943,-0.142252092,0.455476077,-0.353833393,0.068670122,0.814017467,1.788977315,-2.25792791,32.46614276,-4.386872307,7.202072785,0.335788308,9.652059428,2.850488437,2.15939421,1694.896994,2363.912708,2083.208702,1885.291296,582.2263231,1309.397866,816.8907173,5783.054976,142.5650115
23.3475,-6.142759657,9.03177847,0.102112547,2.36689611,0.205793597,-0.143175624,0.457837259,-0.353218244,0.069768258,0.812865418,1.805785574,-2.236626124,32.61688638,-4.422789656,7.133750896,0.337372377,9.641072165,2.868310743,2.160271354,1695.781518,2366.964004,2083.717499,1901.288651,214.0395659,1312.784051,-435.5901802,7551.725386,142.4545835
23.35,-4.106308155,8.461423121,0.658224407,2.336610409,0.224553679,-0.142032131,0.460174648,-0.352590362,0.070879409,0.811720452,1.821805646,-2.216844175,32.77550537,-4.458618235,7.064897415,0.33885152,9.629994932,2.88596313,2.161149467,1695.967191,2370.476628,2081.030751,1923.049923,5.539252142,1369.985031,-1427.764213,8181.339734,142.3196905
23.3525,-2.442897868,7.768091564,0.976770568,2.325890274,0.235516878,-0.13899424,0.462491196,-0.351958977,0.07199741,0.810577707,1.837893311,-2.198325594,32.9424344,-4.494363153,6.995495144,0.34022918,9.61882717,2.903442265,2.162027993,1695.809214,2373.813929,2076.578678,1942.19535,6.185969273,1562.801093,-2054.698472,7545.120478,142.2052886
23.355,-1.476742374,6.825375009,1.098155942,2.332588888,0.247414569,-0.134524219,0.464789372,-0.351329572,0.073114343,0.809434408,1.854722066,-2.180874937,33.11812296,-4.530029942,6.925525961,0.341509351,9.607568153,2.920745432,2.162907309,1695.998121,2378.290634,2070.757259,1960.775525,262.0605385,2059.897539,-2401.457011,7094.800998,142.0888156
23.3575,-1.540429625,5.566759861,1.039781446,2.349952376,0.262293393,-0.129748503,0.467069927,-0.350706595,0.074221968,0.808289286,1.872876841,-2.164404604,33.30302242,-4.56562464,6.854970832,0.342696628,9.596218231,2.937869446,2.163788797,1697.119517,2384.113417,2064.571393,1977.669355,840.7975662,2684.059163,-2396.587801,6114.605257,141.9706259
23.36,-3.146722504,3.752323953,0.776681931,2.369122099,0.279384957,-0.125459035,0.469329442,-0.350092774,0.075313305,0.807144166,1.892708573,-2.149091855,33.49757888,-4.601153845,6.783809821,0.343796231,9.584778385,2.954810918,2.164673621,1700.202109,2391.71093,2058.77432,1991.348552,1979.132127,3688.488657,-2310.06503,5108.618482,141.8503734
23.3625,-6.791066664,0.773486679,0.281966599,2.377778705,0.298604394,-0.122510623,0.47156298,-0.349489426,0.076382092,0.806002372,1.914416209,-2.135208353,33.70223347,-4.636624775,6.712022121,0.344814023,9.573251199,2.971566733,2.16556215,1707.015178,2402.55586,2053.021068,2003.212447,3068.469146,4142.694298,-1852.233201,3582.136429,141.7037036
23.365,-10.89921013,-2.37484178,-0.213998513,2.364796903,0.309758961,-0.122885901,0.4737631,-0.348898616,0.077420402,0.804868606,1.938236224,-2.123245,33.91739624,-4.672045306,6.639586083,0.3457565,9.561639177,2.988137032,2.166454259,1715.544455,2412.424401,2049.513154,2009.259234,3958.112288,3906.259133,-1122.737765,1718.592679,141.5795262
23.3675,-15.4679337,-6.0162085,-0.713510364,2.328126502,0.30894897,-0.125943678,0.475920518,-0.348324304,0.078420043,0.803747945,1.964481655,-2.113834515,34.1434402,-4.707424006,6.56647926,0.346630764,9.54994242,3.004524034,2.167349409,1726.805739,2422.087156,2047.407379,2011.805411,5417.956276,3918.105157,-640.0295445,496.0572555,141.4533541
23.37,-20.69729358,-10.49098495,-1.245992544,2.261991549,0.286159325,-0.13061285,0.478024363,-0.347771874,0.079373466,0.802645802,1.993488141,-2.10772425,34.38069617,-4.742770149,6.492678479,0.347444473,9.538158293,3.020729216,2.168246191,1742.634236,2432.014927,2046.313006,2011.73952,6025.331619,3161.358986,-222.6394751,-405.249948,141.29969
23.3725,-24.3902108,-13.89522141,-1.606660385,2.195373955,0.248573324,-0.134346322,0.480063873,-0.347244256,0.080276495,0.801568322,2.02530816,-2.105616597,34.62946933,-4.778093722,6.418159924,0.348205778,9.526284427,3.036751752,2.169142856,1756.932397,2437.89395,2046.294181,2009.779161,5758.699083,1647.612496,68.53681356,-1038.522762,141.1697987
23.375,-27.06436711,-16.53971498,-1.864711499,2.124873481,0.198331117,-0.138007137,0.482034919,-0.346746189,0.081124903,0.800516959,2.060231417,-2.107722842,34.89002326,-4.813405424,6.342899243,0.348923234,9.514321517,3.052588228,2.170038868,1771.427732,2440.252989,2046.65569,2006.546906,5722.387732,238.3415959,112.4160049,-1414.22729,141.0380615
23.3775,-28.78941003,-18.37618481,-2.025008988,2.054958833,0.144077813,-0.142201953,0.483938641,-0.346284152,0.081914656,0.799489273,2.098751863,-2.113847225,35.16256295,-4.848716648,6.266871683,0.349605712,9.502270517,3.068233837,2.170934329,1785.544336,2439.085658,2046.856261,2002.708025,5478.669171,-1404.197867,-43.90512702,-1567.803009,140.9048477
23.38,-29.33476098,-19.22223795,-2.044895612,1.985811634,0.091226367,-0.14734723,0.485778349,-0.34586203,0.082644039,0.7984824,2.141153124,-2.123592309,35.44723453,-4.884039464,6.190052227,0.350262309,9.490132387,3.083683598,2.171829697,1798.821077,2433.232,2046.436164,1998.707891,5608.383739,-3648.26888,-331.0016306,-1611.729574,140.7699285
23.3825,-28.60103062,-19.26479783,-1.876102684,1.900720745,0.035510795,-0.15401498,0.487557585,-0.345481641,0.083314485,0.797493872,2.187464378,-2.136479909,35.74410909,-4.919386586,6.112415762,0.350902254,9.477906757,3.098934925,2.17272541,1813.586255,2420.844314,2045.201253,1994.649377,5223.655392,-5312.227122,-476.3322035,-1199.056708,140.6061645
23.385,-26.82027785,-18.67152374,-1.560439654,1.827868939,-0.003807797,-0.159426434,0.489281719,-0.345149825,0.083926331,0.796517974,2.238108083,-2.151876331,36.05313548,-4.954771333,6.033937272,0.351534801,9.465592246,3.113988248,2.173622137,1824.939354,2406.670864,2044.054503,1992.712608,4376.656983,-6182.110064,-268.3020546,-270.6788954,140.4682341
23.3875,-23.87402021,-17.59090867,-1.063529619,1.758525235,-0.040111056,-0.164214389,0.490957842,-0.344870424,0.08448063,0.795549077,2.293316757,-2.169003052,36.37416331,-4.990207567,5.954592062,0.352169112,9.453187356,3.128844503,2.174520825,1835.46954,2389.933764,2043.859743,1993.295982,4502.872918,-7500.747931,424.4009975,1023.978795,140.3289085
23.39,-19.20669581,-15.78247985,-0.289356421,1.687715896,-0.084667807,-0.168073871,0.492593518,-0.344640615,0.084981803,0.794583688,2.352756869,-2.186989863,36.70695408,-5.025709626,5.874356006,0.35281414,9.440690667,3.143505183,2.175421915,1847.453719,2369.167125,2046.176508,1997.832502,4335.801582,-7368.931268,1443.422781,2369.711048,140.1602609
23.3925,-14.64624057,-13.81586977,0.457695038,1.642700474,-0.121918048,-0.168835126,0.494199056,-0.344455387,0.085440891,0.793616747,2.415742108,-2.204567026,37.05117878,-5.061292238,5.793205822,0.353478496,9.428101535,3.157972008,2.176324147,1857.148547,2353.089107,2051.076857,2005.144538,3883.984063,-5787.69129,2655.013469,3643.844411,140.0186326
23.395,-9.808432401,-11.32099358,1.234731405,1.614182559,-0.155312408,-0.166652905,0.495785894,-0.344305487,0.085875259,0.792643554,2.481050497,-2.220206218,37.40641632,-5.096970419,5.711119362,0.354170335,9.415420509,3.172245161,2.177225641,1866.873639,2340.228668,2059.451576,2016.051724,3954.805822,-4390.051794,3865.756779,4887.579714,139.8760383
23.3975,-5.080393766,-8.380022989,1.974332049,1.599160118,-0.183517426,-0.161847351,0.497364754,-0.344175728,0.086304824,0.791662048,2.546886619,-2.23237559,37.77213923,-5.132759355,5.628075917,0.354897228,9.40264712,3.186325072,2.178124687,1876.922577,2331.138848,2070.405641,2029.582436,4187.378001,-2576.865601,4791.891754,5913.80547,139.7327755
23.4,-0.868976179,-4.951620763,2.602548195,1.597165628,-0.204820846,-0.153775507,0.498943509,-0.344047423,0.086749667,0.79067337,2.611069296,-2.239770366,38.14768797,-5.168674266,5.544056523,0.355666059,9.389781024,3.200211232,2.179020127,1887.810529,2327.34434,2083.411034,2045.620751,5121.209025,-407.2467705,5805.669912,7449.473201,139.5888781
23.4025,3.170349535,-0.438869791,3.179504381,1.604310735,-0.219389028,-0.141222761,0.500525039,-0.343904941,0.087226219,0.789680798,2.671576198,-2.24156792,38.53222086,-5.204730255,5.459044273,0.35648291,9.376824189,3.213901337,2.179911636,1902.528622,2329.102615,2099.43399,2066.829802,5780.620875,1631.418951,5638.245824,7969.826256,139.4157016
23.405,5.44028614,3.452538844,3.521165693,1.61659445,-0.219080101,-0.130182322,0.502109056,-0.343738269,0.087746041,0.788687655,2.72683508,-2.237311548,38.92470451,-5.240942136,5.37302462,0.357352963,9.363780832,3.22739127,2.180800289,1916.713634,2335.501435,2111.602264,2085.469882,6193.726082,3441.760628,4322.222852,7504.212037,139.271152
23.4075,6.316245634,7.167556053,3.784213176,1.63587526,-0.20436051,-0.120651231,0.503692531,-0.343543381,0.088313915,0.787697136,2.775870567,-2.226946687,39.32390948,-5.277324243,5.285985659,0.3582804,9.350655783,3.240674708,2.181688011,1933.497252,2346.311418,2121.045105,2104.350862,8071.883386,5590.010983,3350.815615,8193.882108,139.1265848
23.41,5.535347205,11.04644295,4.125149719,1.665401666,-0.172484004,-0.112335163,0.505269993,-0.343322558,0.088928901,0.786711892,2.818332972,-2.210788081,39.72842405,-5.313890235,5.197918391,0.359268328,9.337452362,3.253745025,2.182576044,1957.073051,2363.45149,2128.356342,2126.439293,9211.669765,6853.887493,2026.430837,7886.849697,138.9533635
23.4125,3.303859452,13.56717775,4.502532503,1.689957874,-0.136912329,-0.10823526,0.506832628,-0.343080308,0.089587876,0.785736029,2.85407388,-2.189558023,40.13670249,-5.350652886,5.108816932,0.360318719,9.324173274,3.266594403,2.183465515,1979.555601,2380.580855,2131.177259,2143.785111,9471.687572,7310.070229,624.6480181,6588.475007,138.8094439
23.415,-0.433391344,15.16967798,4.988741761,1.705166798,-0.095825773,-0.104445238,0.508371691,-0.342820971,0.090282453,0.784774348,2.883203978,-2.164199481,40.54709627,-5.38762388,5.018678695,0.361432366,9.310819194,3.279215108,2.184357986,2004.431488,2400.001841,2131.479582,2159.381668,10190.66031,8053.223385,-80.77659869,5861.742407,138.6662425
23.4175,-5.156229798,15.95751479,5.48749834,1.707329934,-0.053619595,-0.096000057,0.509877883,-0.34254738,0.091001559,0.783833054,2.905887536,-2.135880914,40.9578958,-5.42481362,4.927504509,0.362608866,9.297388102,3.291600094,2.185255086,2030.508903,2420.846972,2130.773376,2173.093823,10468.11798,8552.465642,-220.271931,4949.353345,138.5238446
23.42,-10.59591483,15.78506614,5.820591145,1.690213675,-0.013771721,-0.078169132,0.511342067,-0.342264769,0.091733624,0.782917348,2.922564895,-2.105843533,41.36735085,-5.46223104,4.835298696,0.363846621,9.283874912,3.303744252,2.186158268,2056.772078,2442.764169,2130.378222,2184.128435,11242.65405,9691.655179,272.2191097,4196.959783,138.382656
23.4225,-17.25018206,14.55885839,5.807317782,1.6457999,0.031214202,-0.051596725,0.512754492,-0.341979148,0.092466682,0.782032637,2.933814433,-2.075480587,41.7737042,-5.499883455,4.742069086,0.365142865,9.270272665,3.315644869,2.187069056,2086.722173,2469.305248,2132.134471,2194.078622,10473.93965,9605.875276,1231.43977,3146.968966,138.21491
23.425,-22.40058236,12.77291348,5.379720801,1.590893885,0.068243538,-0.031083339,0.514106303,-0.341696384,0.093188261,0.781183946,2.94033012,-2.046198996,42.17522671,-5.537776436,4.647826983,0.366493713,9.25657382,3.327301225,2.187988785,2109.141777,2490.793546,2136.535421,2199.86328,8199.672724,8267.836102,2520.189296,1962.393228,138.0767077
23.4275,-26.64586643,10.33755639,4.563583151,1.522194746,0.103555571,-0.015034908,0.515391083,-0.341419023,0.093889175,0.780375836,2.94255267,-2.019171129,42.57027816,-5.575913722,4.552587087,0.367894224,9.242771923,3.338713351,2.188918101,2127.720536,2510.644428,2144.735418,2203.890588,7105.552169,8175.184947,4496.000758,1690.319942,137.9403496
23.43,-30.30675611,6.957054399,3.306521186,1.430198549,0.135926874,-0.00190727,0.516604996,-0.341146681,0.094563396,0.779612131,2.940688412,-1.995296793,42.95732573,-5.614297178,4.456367367,0.369338494,9.228862356,3.34988097,2.189857016,2144.669537,2531.66947,2159.015425,2208.314879,5265.67232,7171.639051,5869.945761,1833.170414,137.7790529
23.4325,-32.00759179,4.072564959,2.19355464,1.349715161,0.147766539,0.003358274,0.517746095,-0.340878592,0.095204745,0.778895622,2.93501692,-1.975325411,43.33493213,-5.652926784,4.359188894,0.370819754,9.214842595,3.360802691,2.19080531,2154.048898,2546.502624,2174.085147,2213.05644,2788.087388,5379.041797,6439.806997,2413.896327,137.6467113
23.435,-32.24292952,1.531250158,1.210476318,1.268850772,0.142550832,0.003153417,0.51881518,-0.340614474,0.095810101,0.778226697,2.92583582,-1.959648178,43.70178145,-5.691800679,4.261075639,0.372330492,9.200712439,3.371475778,2.191762101,2158.609974,2558.564679,2191.21446,2220.384361,1111.472352,4429.395916,6942.363089,3498.303561,137.516652
23.4375,-31.2785714,-0.4942855,0.449144193,1.188994792,0.128136504,8.65E-05,0.519817721,-0.340355447,0.096380474,0.777601503,2.913534613,-1.948039722,44.05669422,-5.73091522,4.16205425,0.37386257,9.186474263,3.381896932,2.192726598,2159.60626,2568.649603,2208.796962,2230.547958,-270.7098936,3676.977481,6802.266849,4767.265042,137.3885688
23.44,-28.94414133,-1.827163258,0.022234745,1.112055345,0.111770537,-0.003905688,0.520760946,-0.340102841,0.096915137,0.777015095,2.898675447,-1.94011683,44.39860811,-5.770265082,4.062153802,0.375407353,9.172129815,3.392063194,2.193697668,2157.256425,2576.949567,2225.225794,2244.220686,-1467.903111,3385.713754,6550.881704,6653.592891,137.262956
23.4425,-24.74324535,-2.819482064,-0.110774253,1.027925932,0.098986054,-0.007549066,0.521653029,-0.339859631,0.097417009,0.776460659,2.881838239,-1.935231879,44.72659703,-5.809843376,3.961405533,0.37695583,9.157681201,3.401971234,2.194674945,2152.266744,2585.578172,2241.551371,2263.815922,-1906.62281,3007.542218,5200.127733,7466.537561,137.1151757
23.445,-20.2862524,-3.4125657,0.036830601,0.968979809,0.096425817,-0.009423587,0.522504469,-0.339625328,0.097893151,0.775930737,2.863218159,-1.93234996,45.03990283,-5.849641783,3.859842578,0.37849873,9.143130212,3.411618748,2.195658372,2147.723311,2591.987278,2251.226433,2281.553374,-1576.829744,2415.925917,2959.369089,6990.225399,136.9945507
23.4475,-15.17266721,-4.087129541,0.345246291,0.924706397,0.100532855,-0.010233522,0.523332504,-0.339404213,0.09834868,0.775411412,2.843697311,-1.929705794,45.33787794,-5.889650688,3.7574997,0.380026619,9.128475912,3.421006008,2.196646918,2144.382595,2597.657802,2256.348216,2298.767049,-923.6290246,2283.633019,1358.552334,6956.163446,136.8766113
23.45,-8.73960078,-5.174314279,0.74438983,0.888851932,0.104635965,-0.008921306,0.524153599,-0.339198205,0.098788974,0.774890208,2.823942275,-1.925563939,45.62000781,-5.929859329,3.654413022,0.381529997,9.113719321,3.430131828,2.197639066,2143.105166,2603.405443,2258.019194,2316.334191,86.95113431,1889.981541,145.8826525,5612.150383,136.7382508
23.4525,-3.494228959,-6.247253138,0.976254979,0.873719757,0.09942272,-0.004990929,0.524979305,-0.339006387,0.099219962,0.774359055,2.804210304,-1.918659509,45.88589725,-5.970255934,3.550619764,0.382999377,9.098863712,3.43899337,2.198633838,2144.817351,2607.107709,2257.077629,2326.827801,1282.244162,1218.11617,-416.6178105,3101.381813,136.6256265
23.455,1.189192999,-7.222520413,0.969423797,0.874615479,0.08063245,0.002514641,0.525817412,-0.338825269,0.099647125,0.77381354,2.784438646,-1.908130316,46.13525855,-6.010827864,3.446157991,0.384425354,9.08390945,3.447589578,2.199630439,2149.516387,2609.496024,2255.936105,2331.8411,2345.455326,730.1657103,-159.1455809,1064.581077,136.5158157
23.4575,5.094104604,-7.869346834,0.707022778,0.887906235,0.05315141,0.012042844,0.52667506,-0.338651183,0.100078933,0.773249334,2.764367736,-1.893068919,46.36791227,-6.051561735,3.341066385,0.385798648,9.068857078,3.455920749,2.200629132,2156.544628,2610.758538,2256.281901,2332.150707,3312.536854,260.0163823,780.5475062,-858.0880538,136.4083582
23.46,7.752965651,-7.911860108,0.163633732,0.912611499,0.021730971,0.020071401,0.527556324,-0.338479726,0.100523563,0.772664512,2.743569085,-1.872899586,46.58375999,-6.092443544,3.235384029,0.387110141,9.053706948,3.463986437,2.201629795,2166.079071,2610.796106,2259.838843,2327.55066,4668.657475,-173.3378012,2418.783237,-2756.538032,136.3037567
23.4625,9.257655157,-7.216505963,-0.63663168,0.949920067,-0.013009641,0.021227575,0.528460771,-0.338307308,0.10098296,0.77206065,2.721811973,-1.847731316,46.78273979,-6.133458774,3.12915021,0.388350902,9.038457878,3.471786115,2.202631855,2179.887915,2609.891849,2268.375818,2318.368016,5348.354047,-375.1154797,3713.840972,-3596.59168,136.1815527
23.465,9.064887708,-6.146343364,-1.237309626,0.982990127,-0.034690501,0.014224319,0.529384975,-0.338134287,0.101452163,0.771440537,2.699413604,-1.818206692,46.96480591,-6.174592505,3.022404246,0.3895122,9.023106984,3.479320252,2.203633948,2192.820841,2608.920528,2278.408048,2309.567702,5285.623847,-261.3101591,4256.773853,-3306.423788,136.0824879
23.4675,7.501094522,-4.861179823,-1.571639565,1.011206836,-0.045474078,0.003301793,0.530322952,-0.33796593,0.101922719,0.770807032,2.677178695,-1.785338848,47.12993482,-6.215829509,2.915185333,0.390585508,9.00765036,3.486590246,2.204635262,2206.316034,2608.585298,2289.659687,2301.835897,5791.83144,185.8487494,4679.062072,-2760.111247,135.9863036
23.47,4.395667289,-3.446121793,-1.566406185,1.032334064,-0.048204887,-0.009582547,0.53126695,-0.337806804,0.102388319,0.770164265,2.655680163,-1.750286723,47.27817107,-6.257154336,2.80753242,0.391562488,8.992087531,3.493595596,2.205635791,2221.779998,2609.849772,2301.803358,2295.767145,5330.187745,824.7695196,3843.741541,-1545.7808,135.8742104
23.4725,1.12492454,-2.575737531,-1.254644943,1.037002654,-0.046591951,-0.017641751,0.532206721,-0.337655087,0.102844724,0.769520655,2.634748798,-1.714485529,47.40964612,-6.298551403,2.699484094,0.392434989,8.976419308,3.500334879,2.206635745,2232.966973,2612.709146,2308.878394,2294.106993,3896.241785,1521.593351,1883.054692,23.5034205,135.7835678
23.475,-2.44328266,-2.126692026,-0.759067653,1.028431838,-0.045968819,-0.021146644,0.533133783,-0.337508627,0.103290073,0.76888328,2.614104823,-1.679110366,47.52455711,-6.34000508,2.591078481,0.393195033,8.960646761,3.506806366,2.207635861,2241.261207,2617.457739,2311.218631,2295.884662,2735.752079,2138.70412,70.49905106,1143.817977,135.6957888
23.4775,-6.006070505,-2.004672039,-0.251443856,1.010608186,-0.048241953,-0.019836971,0.534044904,-0.337371635,0.103720524,0.768253112,2.594259423,-1.64477162,47.62312362,-6.381499767,2.482353157,0.393834812,8.944770343,3.513008113,2.208636862,2246.645734,2623.402666,2309.23089,2299.826083,1443.917345,2505.201562,-1738.826839,1834.639615,135.6103749
23.48,-9.371590328,-2.182266108,0.112572142,0.984652689,-0.054131327,-0.013857546,0.534936443,-0.337252358,0.104129307,0.767630092,2.576184646,-1.612181436,47.705582,-6.423019978,2.373345064,0.394346696,8.928791034,3.518937857,2.209639773,2248.480794,2629.983747,2302.524497,2305.057861,122.6174107,2797.269876,-3718.094144,2225.306598,135.5277992
23.4825,-13.08649391,-2.607156242,0.269344758,0.948346111,-0.063377996,-0.006355639,0.535797448,-0.337157024,0.104508618,0.767020318,2.560476424,-1.582901121,47.77220693,-6.464550421,2.264090425,0.394723254,8.912710378,3.524592397,2.210646328,2247.258821,2637.389016,2290.640419,2310.952616,-841.3495128,2470.639649,-4682.097403,1861.186305,135.4319701
23.485,-15.9184606,-3.060618892,0.168052212,0.915821668,-0.071188218,-0.002633134,0.536615645,-0.337087026,0.104851427,0.766432872,2.547219692,-1.558643623,47.82334188,-6.506076086,2.15462466,0.394957274,8.896527177,3.529969774,2.21165838,2244.274046,2642.336945,2279.11401,2314.363792,-1350.578254,1599.833644,-4558.447089,877.2008249,135.3548157
23.4875,-18.49619503,-3.552513028,-0.096410467,0.880108307,-0.078487702,-0.002398269,0.537380947,-0.33703963,0.105153549,0.765876772,2.536063297,-1.540799148,47.85940826,-6.547582318,2.044982323,0.395041783,8.880238923,3.535069066,2.212676125,2240.505929,2645.388184,2267.848184,2315.33862,-1567.613494,876.0474008,-4506.465852,-168.7636772,135.2804488
23.49,-21.23729457,-4.117609104,-0.476498819,0.829842487,-0.088580743,-0.004998909,0.538085843,-0.337010539,0.105414883,0.765359386,2.52639234,-1.530315829,47.88089702,-6.589054903,1.93519702,0.394970072,8.86384241,3.539889885,2.213698641,2236.435979,2646.717182,2256.581681,2313.519974,-1272.951544,147.5224049,-3545.897573,-1082.055505,135.1944096
23.4925,-23.10333919,-4.506755709,-0.763207178,0.779338445,-0.099368115,-0.008582464,0.53872819,-0.336998528,0.105637889,0.764882623,2.517897289,-1.527393617,47.88834546,-6.630480148,1.825301344,0.394735738,8.847335777,3.544433016,2.214724674,2234.141172,2646.125796,2250.118696,2309.928343,-611.6663495,-490.6517258,-1838.980069,-1674.856405,135.1253624
23.495,-24.3178594,-4.736504723,-0.95182218,0.719210009,-0.112736798,-0.012828361,0.539311586,-0.337008565,0.105824351,0.76444172,2.511016347,-1.531524807,47.88231076,-6.671844958,1.715326792,0.394332725,8.830720934,3.548699556,2.215753557,2233.377647,2644.263923,2247.386781,2305.145692,-66.45235651,-887.4046178,-457.4206717,-1933.61354,135.0590498
23.4975,-24.83043896,-4.794792386,-1.036541754,0.652917796,-0.127723054,-0.017026766,0.53984133,-0.337047103,0.105969987,0.764030888,2.506663206,-1.542179988,47.86336188,-6.713136923,1.605303689,0.393755375,8.814001397,3.552690036,2.216783042,2233.80891,2641.688773,2247.831592,2300.260275,368.1064485,-1161.692573,872.2707572,-1779.437818,134.9949919
23.5,-24.38264678,-4.643666097,-0.999408512,0.584587018,-0.142526245,-0.020524435,0.540321894,-0.337115174,0.106073182,0.763646922,2.505118632,-1.558848646,47.83213448,-6.754344386,1.495261109,0.39299848,8.797181302,3.556403421,2.217810627,2235.218179,2638.45546,2251.748134,2296.248503,671.7226452,-1590.987952,2356.084118,-1379.710288,134.9336365
23.5025,-22.75683066,-4.285999866,-0.845831765,0.508126996,-0.155845881,-0.023706277,0.54075951,-0.337206255,0.106136864,0.763288041,2.505843627,-1.580705566,47.78929416,-6.795456525,1.3852268,0.392057324,8.780261935,3.559837469,2.218834566,2237.167523,2633.733833,2259.612013,2293.361724,625.9041704,-1922.978746,3260.586548,-675.490617,134.8631118
23.505,-20.62887777,-3.916769932,-0.660813724,0.452357349,-0.162157306,-0.025394033,0.541161289,-0.337311862,0.106168805,0.762952018,2.507919208,-1.60666314,47.73567761,-6.836463362,1.275227251,0.390927697,8.763241753,3.56299357,2.219853738,2238.3477,2628.840567,2268.051067,2292.871049,265.8684651,-2232.793739,3585.486555,189.0025318,134.8069081
23.5075,-17.94878043,-3.537087903,-0.459139183,0.405785866,-0.166155647,-0.025987116,0.541533827,-0.337426053,0.106175863,0.762635963,2.510669657,-1.635680346,47.67206953,-6.877355917,1.165287368,0.389605973,8.746114548,3.565872996,2.22086787,2238.496865,2622.569864,2277.539446,2294.306736,-200.8143152,-3133.156483,4223.561121,976.9100353,134.7533465
23.51,-14.43023507,-3.054212706,-0.237894392,0.360354801,-0.173037948,-0.026078937,0.541881808,-0.337544583,0.10616526,0.762337514,2.513482065,-1.666889401,47.59926318,-6.918126199,1.055430569,0.388089097,8.728876464,3.568476246,2.221877969,2237.343629,2613.174784,2289.168873,2297.7556,-585.0571285,-3745.546845,4180.633893,1449.676368,134.6921004
23.5125,-11.48922691,-2.567663135,-0.089395486,0.330887983,-0.183039818,-0.02617658,0.542210664,-0.337667427,0.106142221,0.762052167,2.516227628,-1.699366016,47.51803878,-6.958767225,0.94567875,0.386374597,8.71152799,3.570803944,2.222885362,2235.57158,2603.84213,2298.442615,2301.555118,-731.6718981,-3954.022302,3498.938672,1596.638407,134.643565
23.515,-8.804623615,-1.929583196,0.008786138,0.310481947,-0.196462758,-0.026421896,0.542528104,-0.33780265,0.106108127,0.761770721,2.519730629,-1.731993806,47.42913575,-6.999273036,0.836052273,0.38446059,8.694070276,3.572857587,2.223890158,2233.685269,2593.404673,2306.663566,2305.738792,-641.1140911,-4234.699822,3039.784029,1680.720739,134.5976033
23.5175,-6.497894516,-1.186321568,0.056717031,0.297519277,-0.208760666,-0.026064763,0.542838828,-0.337955583,0.106064812,0.761487252,2.524457521,-1.764008479,47.3332954,-7.039638692,0.726569954,0.382345768,8.676507672,3.574637967,2.224891182,2232.366009,2582.668631,2313.641535,2309.958722,-251.2270985,-4172.141416,2424.863534,1675.792769,134.5537579
23.52,-4.776315962,-0.466649027,0.034960144,0.291407625,-0.214311364,-0.025106667,0.543143595,-0.338121559,0.106014888,0.761202948,2.529865387,-1.795161152,47.23128085,-7.079860245,0.617249068,0.380029395,8.658847204,3.576146293,2.225886357,2232.429134,2572.543966,2318.787884,2314.117756,448.5659198,-4052.889289,1791.081686,1833.34835,134.5124425
23.5225,-3.427694515,0.062011362,-0.072449078,0.287076837,-0.209881382,-0.025966809,0.543440608,-0.338291961,0.105957162,0.760923092,2.535198137,-1.825669158,47.12382723,-7.1199347,0.508105367,0.377511284,8.641093829,3.577383966,2.226873757,2234.608839,2562.404185,2322.596944,2319.125464,1144.258771,-3222.167722,1001.882645,1862.243329,134.4657619
23.525,-2.837414324,0.00233621,-0.229737513,0.282589985,-0.199174523,-0.027132101,0.543728049,-0.33846138,0.10588897,0.760651752,2.540062125,-1.855786335,47.01161855,-7.159859948,0.399153119,0.374791764,8.623249815,3.57835178,2.227852055,2238.150428,2556.433127,2323.797297,2323.428972,1667.452023,-1757.962828,126.1077905,1759.280235,134.4292571
23.5275,-2.648036468,-0.714764777,-0.470767346,0.275276911,-0.186934504,-0.026670418,0.544006606,-0.338627402,0.105810351,0.760389496,2.544284893,-1.885386061,46.89530557,-7.199634691,0.290405153,0.371871645,8.605316328,3.579050458,2.228819744,2242.946099,2553.61437,2323.227483,2327.921865,1983.902239,-593.4653349,-436.0757033,1809.760812,134.3952172
23.53,-2.660591775,-1.931998471,-0.789445851,0.265803295,-0.177495916,-0.025379964,0.544281816,-0.338794472,0.105720878,0.760130433,2.54846814,-1.91378573,46.77547926,-7.239258339,0.181872917,0.36875218,8.587294556,3.579481211,2.229776194,2248.069939,2553.4658,2321.616918,2332.477776,1921.97397,500.1466123,-754.2297617,1780.005204,134.3632061
23.5325,-2.789935309,-3.502748723,-1.180674794,0.25458633,-0.177489827,-0.024551639,0.544558736,-0.338968317,0.105619244,0.759868568,2.553357509,-1.940401183,46.65267715,-7.278730912,0.07356654,0.365435021,8.569182498,3.579644963,2.230721975,2252.555969,2556.115104,2319.456334,2336.821891,1589.779735,1598.214749,-887.0915337,1762.518836,134.3336239
23.535,-2.997057899,-5.294809265,-1.647245204,0.241337446,-0.194967447,-0.026068559,0.544838005,-0.339153145,0.105502955,0.759601915,2.559491377,-1.965210855,46.52738185,-7.318052937,-0.034505099,0.361922192,8.550977924,3.579542206,2.231657844,2256.018837,2561.456874,2317.181461,2341.29037,847.3923226,2116.702549,-664.4566044,1442.553271,134.300913
23.5375,-3.216266544,-6.326694965,-1.93202071,0.232600335,-0.223115105,-0.030348865,0.545114782,-0.339350725,0.105365898,0.759334007,2.567211081,-1.98895337,46.40001101,-7.357225337,-0.142334309,0.358216043,8.532678067,3.579173153,2.232584778,2256.79293,2566.698616,2316.134051,2344.034657,-127.189808,2018.959865,-159.0645764,835.2077805,134.2759632
23.54,-3.534842237,-6.577952109,-1.969906159,0.226921443,-0.256046874,-0.037843305,0.5453805,-0.339557886,0.105202966,0.759073124,2.576287245,-2.012791483,46.27095266,-7.396249346,-0.24991451,0.354319218,8.514282236,3.578537479,2.233503235,2255.382888,2571.551673,2316.386138,2345.466409,-970.4616045,1833.618943,422.5968234,313.9462956,134.2533958
23.5425,-4.079617459,-5.963850799,-1.599534083,0.222208144,-0.288232406,-0.049823371,0.545627957,-0.339768895,0.105013755,0.758827056,2.586107587,-2.037604209,46.14058824,-7.43512642,-0.35724016,0.350234616,8.495792605,3.577634451,2.234412403,2251.940622,2575.866711,2318.247035,2345.604389,-1377.941413,1249.705352,898.448968,-180.957611,134.2290548
23.545,-4.649754073,-4.887052348,-0.909547482,0.218204973,-0.303720747,-0.060817129,0.54585582,-0.339981162,0.104800329,0.758597634,2.59640053,-2.063524742,46.00927752,-7.473858169,-0.464306682,0.345965352,8.477209501,3.576464159,2.2353112,2248.493181,2577.8002,2320.878383,2344.561621,-1283.867139,414.2466886,1185.726934,-585.5160307,134.2110449
23.5475,-5.219775668,-3.578239941,0.103015444,0.210423249,-0.307742442,-0.068905995,0.546067845,-0.340198344,0.104566291,0.758380015,2.607497095,-2.090030695,45.87734595,-7.512446306,-0.571110393,0.341514729,8.458531224,3.575027764,2.236199098,2245.521287,2577.937944,2324.17567,2342.676809,-985.2715516,-215.2105951,1350.083806,-833.5707429,134.1953868
23.55,-5.631289484,-2.324986329,1.231891634,0.196242571,-0.30552667,-0.0702557,0.546267905,-0.340421266,0.104321403,0.758169698,2.619191364,-2.116411351,45.74513505,-7.550892612,-0.677648437,0.336886211,8.439756123,3.573325819,2.237075924,2243.566824,2576.724147,2327.628802,2340.393768,-453.955119,-767.3726932,1326.942724,-952.2257197,134.1816742
23.5525,-5.639473428,-1.321174707,2.242939346,0.175031791,-0.300765323,-0.061843723,0.546460633,-0.340646687,0.104078428,0.75796305,2.630818748,-2.141817148,45.61300169,-7.589198928,-0.783918731,0.332083404,8.420880026,3.571358322,2.237942126,2243.251511,2574.101081,2330.810383,2337.91568,267.7044466,-1431.015749,1236.468819,-1090.318149,134.1703036
23.555,-5.004976666,-0.458857012,3.008888673,0.148864161,-0.297507141,-0.044581252,0.546651038,-0.340868973,0.103846974,0.757757672,2.641681552,-2.165490552,45.48128737,-7.627367163,-0.889919912,0.327110042,8.401898846,3.569124728,2.2387974,2244.905346,2569.569068,2333.811146,2334.942177,924.5927258,-1858.844525,909.2480017,-1069.454872,134.1593642
23.5575,-3.928242637,0.033878712,3.134335926,0.13133312,-0.298449647,-0.027908475,0.546842638,-0.341082702,0.103633426,0.757552593,2.651198918,-2.186937584,45.35030312,-7.665399309,-0.995651285,0.321969965,8.38281055,3.566624351,2.239640649,2247.874475,2564.806858,2335.356623,2332.568406,1457.080097,-2055.504423,381.9745163,-896.0107401,134.1525024
23.56,-2.402529435,0.399905185,2.708164944,0.120906702,-0.301856859,-0.012428584,0.547038383,-0.341285845,0.103440653,0.757346206,2.659203566,-2.20580333,45.22031751,-7.703297481,-1.101112773,0.316667109,8.363614676,3.563856852,2.240470811,2252.190746,2559.291546,2335.721018,2330.462123,2085.506713,-2501.402982,-117.576196,-786.1025075,134.1479824
23.5625,-0.294444002,0.771487812,1.72648043,0.117839209,-0.305078904,6.39E-05,0.547239728,-0.341480174,0.103267568,0.757136808,2.665960044,-2.221977762,45.09154828,-7.741063946,-1.20630487,0.311205496,8.344314179,3.560822506,2.241286905,2258.302008,2552.299843,2334.768742,2328.637893,2260.098783,-2522.258058,-556.4156541,-453.1973438,134.1452688
23.565,1.500839581,1.024252709,0.73564102,0.12321805,-0.304383469,0.00123489,0.547449042,-0.341669385,0.103110249,0.756921552,2.672036352,-2.235320607,44.96417975,-7.778701161,-1.311228594,0.305589221,8.324912193,3.557522212,2.24208873,2263.49124,2546.680256,2332.93894,2328.196136,1889.904898,-2050.418788,-882.2997716,193.69293,134.1452691
23.5675,3.148694203,1.169993546,-0.14654076,0.135062079,-0.299080531,-0.006407646,0.547671119,-0.341860393,0.102963828,0.756694503,2.67836412,-2.245429994,44.83836616,-7.816211796,-1.415885437,0.299822447,8.305412347,3.55395737,2.242877019,2267.751533,2542.04775,2330.357243,2329.606358,1391.773336,-1567.688098,-1083.008734,960.6100756,134.1476208
23.57,4.5982056,1.195686141,-0.783702815,0.149972823,-0.291692494,-0.016318968,0.547910063,-0.342056443,0.102826126,0.75645151,2.685417686,-2.251921196,44.71426215,-7.853598745,-1.520277306,0.293909396,8.285820711,3.550129981,2.243652172,2270.450107,2538.841816,2327.523897,2332.999187,563.2799804,-818.2171205,-1084.710477,1849.987222,134.1519261
23.5725,5.807353095,1.092861846,-1.067813649,0.16551583,-0.285416896,-0.024572554,0.548168429,-0.342259034,0.10269472,0.756190359,2.693490243,-2.254597123,44.59199164,-7.890865122,-1.624406464,0.287854344,8.266140727,3.546042634,2.244413512,2270.567933,2537.956664,2324.933691,2338.856294,-592.4143146,225.5624672,-949.4398647,2994.518881,134.1585919
23.575,7.060887119,0.919837413,-1.068988833,0.181585444,-0.283305814,-0.029805714,0.548445727,-0.342468433,0.102567545,0.755911541,2.702664698,-2.253581096,44.47163636,-7.928014233,-1.728275461,0.281661609,8.246372582,3.541697672,2.245159805,2267.488035,2539.969628,2322.776697,2347.971781,-1587.895422,1236.515516,-562.6578699,3466.791142,134.1693267
23.5775,8.006047955,0.826848935,-0.891958415,0.192784348,-0.286331921,-0.030341965,0.548740452,-0.342685867,0.102445408,0.755615463,2.712937355,-2.249002493,44.35323796,-7.965049527,-1.83188705,0.27533554,8.226514802,3.537097259,2.245889793,2262.628456,2544.139241,2322.120402,2356.19025,-2214.322882,2083.160237,7.29931538,3084.933595,134.180558
23.58,8.851375151,0.848612505,-0.654073467,0.206863691,-0.289762656,-0.028734561,0.549048703,-0.342909688,0.102333247,0.755305005,2.723819034,-2.241138612,44.23681068,-8.001974522,-1.935244098,0.268880502,8.206568428,3.532243684,2.246602326,2256.416421,2550.385429,2322.813194,2363.396449,-2734.694919,3021.234651,598.8822732,2581.513926,134.1941692
23.5825,9.618596676,0.96839588,-0.385761208,0.233603735,-0.287794367,-0.026498185,0.549368816,-0.343135325,0.10223618,0.754982728,2.734678414,-2.230067803,44.12233466,-8.038792719,-2.038349488,0.262300858,8.186538496,3.52713944,2.24729672,2248.954981,2559.245415,2325.114813,2369.097819,-2512.9736,3282.610231,1056.312863,1420.70384,134.2132652
23.585,9.91322752,1.075951341,-0.193253499,0.262436131,-0.280507294,-0.025540884,0.54970317,-0.343357926,0.102156881,0.754648716,2.745133524,-2.215547812,44.00973573,-8.075507499,-2.141206018,0.255600943,8.166429006,3.521786022,2.247973629,2243.851553,2566.79848,2328.094758,2370.499968,-1595.304199,2795.182582,1366.441067,-217.9183243,134.2314901
23.5875,9.732387283,1.144700514,-0.012222768,0.29171646,-0.271366547,-0.025933436,0.550053447,-0.343573921,0.102096002,0.754303258,2.754997869,-2.197480211,43.89886554,-8.11212201,-2.243816289,0.248785048,8.146241138,3.51618374,2.248633496,2240.97846,2573.221328,2331.947018,2368.008228,-679.9233493,2179.515825,1645.214733,-1608.618079,134.2521271
23.59,9.139802111,1.217082221,0.185952732,0.318531181,-0.265211964,-0.026862215,0.550419866,-0.343780791,0.10205361,0.753947321,2.764165834,-2.175943279,43.7895098,-8.148639056,-2.34618261,0.24185739,8.125975033,3.510332486,2.249275791,2240.451936,2577.696059,2336.320832,2362.456878,387.0644051,1092.443667,1805.5702,-2819.693105,134.2747751
23.5925,8.105767913,1.410890251,0.427612367,0.342169277,-0.264741218,-0.027522424,0.550798911,-0.343974458,0.102029604,0.753585337,2.772314911,-2.151434392,43.68140107,-8.185060991,-2.448306901,0.234822095,8.10562935,3.504231291,2.249900137,2242.913782,2578.683546,2340.974869,2353.909762,1695.566723,-606.8866952,1978.369429,-4181.315221,134.2998627
23.595,6.495376024,1.934036744,0.77186207,0.366324471,-0.267834015,-0.02727636,0.551183857,-0.344151511,0.102022883,0.753223923,2.779130308,-2.124814194,43.57421596,-8.221389625,-2.550190607,0.227683173,8.085200918,3.497878178,2.250507059,2248.92977,2574.661626,2346.212679,2341.550302,2573.008125,-2444.549971,1732.731504,-4641.4318,134.332808
23.5975,4.989101868,2.655944094,1.087998576,0.38134779,-0.269200931,-0.025936944,0.551567927,-0.344309304,0.102031087,0.752869566,2.784418903,-2.096985589,43.46759333,-8.257626153,-2.651834628,0.220444485,8.064686012,3.491270932,2.251096936,2255.778823,2566.460796,2349.638527,2330.702603,2863.105233,-4289.39474,1004.19224,-4158.36389,134.3626451
23.6,3.514909062,3.613927714,1.397944442,0.389912622,-0.264837664,-0.023194396,0.551948134,-0.344447619,0.102050717,0.752525027,2.788344597,-2.068478031,43.36114902,-8.2937711,-2.753239254,0.21310972,8.044079957,3.484407714,2.251669534,2263.245296,2553.214652,2351.23364,2320.758482,3069.190507,-6808.091643,110.4801556,-3883.505357,134.3949748
23.6025,2.013475802,4.860166919,1.708570985,0.392746856,-0.25235659,-0.017937293,0.552326187,-0.344571758,0.102079185,0.752186983,2.791585333,-2.039260531,43.25448346,-8.329824309,-2.854404122,0.20568236,8.023377467,3.477287381,2.252224126,2271.124775,2532.420338,2350.190928,2311.285076,2453.642341,-8173.685714,-939.0247936,-2935.409396,134.4366757
23.605,1.113148779,5.830026067,1.879567075,0.389345697,-0.23795375,-0.011664491,0.55270249,-0.344687243,0.102115927,0.7518527,2.794674158,-2.009368227,43.14720405,-8.365784947,-2.955328195,0.198165661,8.002574328,3.469909616,2.252760059,2275.513508,2512.346224,2346.538516,2306.081435,1060.564689,-8162.832769,-2008.186982,-1486.592371,134.4738649
23.6075,0.632416468,6.568445992,1.938073842,0.382532559,-0.221044781,-0.004121826,0.553074157,-0.344798754,0.102160672,0.751522209,2.797931864,-1.979163415,43.03892709,-8.401651546,-3.056009752,0.190562631,7.981667807,3.462274523,2.253276888,2276.427599,2491.606174,2340.149993,2303.852114,-315.9744769,-8045.595092,-2896.972403,-459.2485478,134.5136061
23.61,0.440259343,7.018550364,1.918245572,0.376932572,-0.202062858,0.002998084,0.55343751,-0.344910893,0.102212889,0.751196197,2.801627385,-1.949086018,42.9292867,-8.437422078,-3.1564464,0.182876007,7.960656619,3.45438322,2.253773827,2273.933635,2472.118248,2332.053654,2303.785193,-1830.183758,-7094.599158,-3426.309419,334.0032926,134.5554793
23.6125,0.405559377,7.041779546,1.863274157,0.377258981,-0.180575872,0.007785165,0.553789266,-0.345023154,0.102272178,0.750877385,2.805614397,-1.919565939,42.81796805,-8.473094037,-3.256635094,0.175108238,7.939542012,3.446237783,2.254250174,2267.27668,2456.133178,2323.018446,2305.522131,-3749.955377,-5833.689948,-3855.604671,918.867099,134.5999425
23.615,0.2344738,6.549129172,1.857605059,0.386214659,-0.154147613,0.010368401,0.554127676,-0.345132597,0.102338695,0.750568405,2.809553911,-1.890867147,42.70470265,-8.508664549,-3.356572154,0.167261462,7.918327371,3.437840242,2.254705151,2255.183858,2442.949798,2312.775631,2308.379528,-4913.228049,-3665.492585,-3427.23049,999.4430778,134.6563166
23.6175,-0.199791926,5.758912484,1.962136061,0.398742377,-0.13492793,0.01117526,0.554453131,-0.345238736,0.102412049,0.750269251,2.813356121,-1.863015347,42.58924229,-8.544130472,-3.456253302,0.159337494,7.89701789,3.429192328,2.255138302,2242.71054,2437.805715,2305.882293,2310.519346,-5152.126035,-786.4340587,-2219.436665,680.8677349,134.7058273
23.62,-0.993023257,4.724183701,2.198882232,0.410411913,-0.122316183,0.01246545,0.554767269,-0.34534234,0.102493454,0.749978205,2.816964235,-1.835834227,42.47136961,-8.57948851,-3.555673686,0.151337814,7.87561806,3.420295174,2.255549605,2229.423228,2439.017628,2301.678447,2311.783867,-5594.109915,1906.950554,-1135.140857,363.0793484,134.7579859
23.6225,-2.153639983,3.420822688,2.578292684,0.413140775,-0.11459494,0.016235404,0.555072742,-0.345443312,0.102584702,0.749693108,2.820241198,-1.80902338,42.3508986,-8.614735305,-3.654827914,0.143263568,7.85412899,3.411148894,2.255939906,2214.73999,2447.340468,2300.206589,2312.334743,-4868.750468,4037.888556,27.60362131,136.4340601,134.8236574
23.625,-3.006765049,2.421513036,2.887040721,0.400802829,-0.111823598,0.022171435,0.555373613,-0.345543411,0.102686744,0.749410018,2.823258059,-1.782140149,42.22765131,-8.64986752,-3.753710079,0.135115571,7.832552129,3.401754113,2.256310619,2205.079476,2459.207071,2301.816466,2312.466037,-3044.567066,5506.976109,1102.577766,145.4371435,134.8809641
23.6275,-3.399801319,1.61183572,3.058161325,0.377680522,-0.109858111,0.031356354,0.555676043,-0.345646364,0.102799326,0.749122695,2.826345368,-1.754545029,42.10145046,-8.684881901,-3.852313782,0.126894326,7.810891072,3.392112731,2.25666255,2199.517155,2474.875349,2305.719478,2313.061929,-1422.235137,6666.629683,1797.762624,423.6718186,134.9409613
23.63,-3.286611928,0.987607184,3.025487291,0.354139955,-0.107186853,0.043223054,0.555986249,-0.345753805,0.102920742,0.748826015,2.829744562,-1.725653975,41.97212612,-8.719775317,-3.950632144,0.118600045,7.789148215,3.382226549,2.256995675,2197.9683,2492.540219,2310.805279,2314.584396,363.6253971,7241.152971,2134.881756,901.1220235,135.0031967
23.6325,-2.646464223,0.596199183,2.690273255,0.338214837,-0.104293633,0.057467768,0.556306752,-0.345863145,0.103048736,0.748519627,2.833301959,-1.69530229,41.83951626,-8.754544772,-4.048657812,0.110232685,7.767322296,3.3720957,2.257309681,2201.335282,2511.081114,2316.393887,2317.567539,2461.889104,7934.426697,2377.977738,1628.011958,135.0681367
23.635,-1.60860695,0.415563164,1.987149031,0.332041362,-0.102207045,0.073485576,0.556635632,-0.345968917,0.103181189,0.748207783,2.836527994,-1.66377786,41.70345743,-8.789187401,-4.146382962,0.10179199,7.745411694,3.361720118,2.257604184,2210.277746,2532.212353,2322.695167,2322.724456,3871.683719,7237.973892,2152.653265,2053.536974,135.1491946
23.6375,-0.82998005,0.53246583,1.29481064,0.335879949,-0.102158025,0.080243829,0.556968528,-0.346064243,0.103316807,0.747897094,2.838748452,-1.63158418,41.56378039,-8.823700441,-4.243799277,0.093277538,7.723416582,3.351100795,2.257879065,2220.6937,2547.270983,2327.157153,2327.835224,4430.331991,5131.741398,1583.187061,2010.641224,135.2193501
23.64,-0.453345468,0.955348063,0.752552351,0.342651156,-0.102706798,0.075395509,0.557297514,-0.346143139,0.103457339,0.747595998,2.839149183,-1.599457157,41.42030351,-8.858081171,-4.340897933,0.084688792,7.701339998,3.34024005,2.258134105,2232.429406,2557.87106,2330.611103,2332.777662,5036.576807,3319.188573,1302.346574,1847.507278,135.2922066
23.6425,-0.669116253,1.814481077,0.529053571,0.348277375,-0.100965215,0.063646851,0.55761298,-0.346202689,0.103605243,0.747312678,2.837103789,-1.568228753,41.27281336,-8.892326853,-4.437669563,0.076025159,7.679185881,3.329140702,2.258369243,2245.876584,2563.866926,2333.668886,2337.07276,4548.948156,965.4136896,956.268027,1105.94882,135.3827445
23.645,-1.452987148,2.792809643,0.751365228,0.349521174,-0.096023572,0.056428847,0.557908216,-0.346244127,0.103762717,0.747051277,2.832436817,-1.538398076,41.12106107,-8.926434653,-4.534104226,0.067286053,7.656955418,3.317804923,2.258584424,2255.174146,2562.698128,2335.392443,2338.307406,3098.317577,-1711.719264,505.1051344,-145.4046187,135.4607708
23.6475,-2.840233002,3.988324121,1.290560828,0.346417074,-0.087609257,0.056314639,0.558180043,-0.346272811,0.103932758,0.746811293,2.825387811,-1.51004293,40.9647676,-8.960401554,-4.630191373,0.058470962,7.634647854,3.306234589,2.258779408,2261.368172,2555.30833,2336.194411,2336.345737,1899.426769,-3835.554319,122.7536737,-1334.510893,135.5414507
23.65,-4.672695545,5.321045289,1.93609098,0.339083195,-0.076856308,0.062264539,0.558424997,-0.346295818,0.104118926,0.74659157,2.816324284,-1.483223486,40.80363134,-8.99422428,-4.725919813,0.049579522,7.612263473,3.29443214,2.25895383,2264.67128,2543.520357,2336.006211,2331.634852,679.0630307,-5469.956038,-401.0139834,-2450.726974,135.6243099
23.6525,-6.948544918,6.767164947,2.516821185,0.326539137,-0.063338896,0.072744891,0.558638041,-0.346317198,0.104323539,0.746393717,2.805434797,-1.458203062,40.63734738,-9.027899221,-4.821277698,0.040611592,7.58980312,3.282399833,2.259107427,2264.763487,2527.958549,2334.189342,2324.092102,-495.7335621,-7228.631575,-1289.436184,-3741.122343,135.7097654
23.655,-10.04285488,8.552961138,2.965348152,0.305648469,-0.042995852,0.086036496,0.558815033,-0.346335133,0.104545652,0.74622185,2.792687282,-1.435291076,40.46562404,-9.061422372,-4.916252509,0.031567333,7.567264306,3.270136969,2.259240008,2262.192612,2507.377199,2329.55903,2312.92924,-1179.746657,-7479.992684,-2155.081972,-4245.610024,135.8152649
23.6575,-12.78419687,10.00706886,3.073950179,0.282480218,-0.021604961,0.096021861,0.558954713,-0.346344242,0.104778545,0.746080398,2.778161177,-1.414705344,40.28817371,-9.094789299,-5.010831055,0.022447274,7.5446411,3.257640019,2.259350794,2258.864754,2490.558586,2323.413932,2302.864052,-1317.101446,-6226.701768,-2911.891096,-3965.546371,135.9056002
23.66,-15.4715583,11.31824131,2.899580499,0.251258713,0.004925643,0.104801226,0.559054897,-0.346338712,0.105010615,0.74597536,2.762109795,-1.396877396,40.10470826,-9.127995113,-5.104999501,0.013252383,7.521929085,3.244905493,2.259438517,2255.607105,2476.24369,2314.999575,2293.101508,-1185.789756,-5331.290321,-4084.073452,-4033.691516,135.998392
23.6625,-18.30561615,12.60425298,2.401970651,0.201917845,0.04125946,0.114598931,0.559106776,-0.346313808,0.105230335,0.745917173,2.744674393,-1.382822978,39.91495734,-9.16103448,-5.198743394,0.003984126,7.499127892,3.231931312,2.2595021,2252.935805,2463.902134,2302.993564,2282.695594,-697.2822781,-3558.586974,-4550.83957,-3506.062288,136.1125188
23.665,-20.08638605,13.36523993,1.799628346,0.150560598,0.073248598,0.12213645,0.559102734,-0.346269763,0.105431057,0.745912372,2.72618197,-1.373214009,39.71868924,-9.19390165,-5.29204773,-0.00535548,7.476238611,3.218716564,2.259541463,2252.120694,2458.450755,2292.245377,2275.571197,-76.61321031,-1165.785135,-4216.244926,-2475.36047,136.2098934
23.6675,-21.01290984,13.74103986,1.100653816,0.0917405,0.105458506,0.127802625,0.559042796,-0.346209766,0.105614295,0.745959238,2.707044888,-1.367703077,39.51574888,-9.226590503,-5.384897024,-0.014763819,7.453260322,3.205260577,2.25955773,2252.552739,2458.073209,2281.91234,2270.318792,259.8751648,562.9103872,-3897.140143,-1787.648252,136.3095702
23.67,-21.13610598,13.75570307,0.424785989,0.031554622,0.138170346,0.130403285,0.558931101,-0.346136756,0.105786936,0.746052316,2.687543501,-1.36538627,39.30606453,-9.259094629,-5.477275413,-0.024237633,7.430191395,3.191564162,2.259552671,2253.42007,2461.265307,2272.759676,2266.632955,254.1489229,1848.375078,-3231.181956,-1125.451583,136.4111173
23.6725,-20.32188014,13.28124425,-0.076324948,-0.024679043,0.172017057,0.128663696,0.558773257,-0.346053351,0.105955896,0.746185194,2.667964751,-1.365222023,39.08962985,-9.291407417,-5.569166768,-0.033772988,7.407032888,3.177630611,2.259527493,2253.823484,2467.315084,2265.75643,2264.691534,-162.7437683,2854.345767,-2509.591996,-505.6430161,136.5148727
23.675,-18.45836498,12.09208014,-0.303533724,-0.083340056,0.213308213,0.122221254,0.558577731,-0.345964875,0.106124776,0.746348523,2.64898516,-1.365981096,38.86648272,-9.323522161,-5.660554821,-0.043365251,7.383788275,3.163464432,2.259482645,2252.606351,2475.537036,2260.211716,2264.10474,-830.3547023,2832.257533,-1588.919103,40.98352729,136.6418711
23.6775,-16.37461572,10.58397248,-0.105013438,-0.123482003,0.246499381,0.114637558,0.558351573,-0.34587807,0.106296693,0.746533424,2.631325002,-1.366578748,38.63671825,-9.355432173,-5.751423289,-0.053009081,7.360461709,3.149069538,2.259417628,2249.67171,2481.476372,2257.811835,2264.896452,-1566.577701,1859.447187,-614.2591554,565.0980895,136.7497343
23.68,-13.99163672,8.621630799,0.485787233,-0.155360569,0.275363449,0.107934964,0.558100441,-0.34579496,0.106476707,0.746733975,2.615224941,-1.366058054,38.40052288,-9.3871309,-5.841756004,-0.062698437,7.337057237,3.134448639,2.259331049,2244.773462,2484.834272,2257.14042,2266.930231,-2436.733972,674.9571352,-61.61732005,1184.997422,136.8596511
23.6825,-11.01384996,5.963797159,1.485286068,-0.186879068,0.300138211,0.106162912,0.557829958,-0.345711374,0.1066716,0.746946904,2.600404277,-1.363488998,38.15817565,-9.418612034,-5.93153704,-0.0724266,7.313576037,3.119602362,2.25922101,2237.48804,2484.851157,2257.503748,2270.821439,-2701.285124,-684.4659202,226.1572079,1659.195873,136.9938616
23.685,-8.543430054,3.724449864,2.362794695,-0.209247506,0.309395922,0.113394852,0.557544952,-0.345623213,0.10688546,0.747169891,2.586652782,-1.358116113,37.90999569,-9.449869622,-6.02075083,-0.082186211,7.290014925,3.104529689,2.259085468,2231.267037,2481.411942,2258.271206,2275.22621,-2255.531105,-1990.208163,325.3185449,1934.407246,137.1075826
23.6875,-6.172896084,1.736514521,3.041768053,-0.228015541,0.307887289,0.127531574,0.557249607,-0.345529463,0.107118294,0.747400257,2.5740875,-1.349360649,37.65631581,-9.480898159,-6.10938227,-0.091969329,7.266370751,3.089230526,2.258922601,2226.210385,2474.900117,2259.130341,2280.493475,-1676.293863,-2974.98853,327.3016069,2139.889281,137.2231983
23.69,-3.950031696,0.101636757,3.43537059,-0.243127452,0.30180896,0.142847786,0.556948917,-0.345431786,0.107370015,0.7476335,2.562994439,-1.336586901,37.39749147,-9.511692678,-6.197416818,-0.101767496,7.242643571,3.073706836,2.258731077,2222.885567,2466.537,2259.907715,2285.925657,-841.521715,-3596.179831,263.9625533,2026.965467,137.3403434
23.6925,-2.01597849,-1.055543737,3.45424172,-0.252689353,0.295339406,0.156357445,0.556648676,-0.345332204,0.10763857,0.747864638,2.553743112,-1.319182307,37.13389259,-9.542248805,-6.284840562,-0.11157183,7.218835161,3.057961045,2.258510709,2222.002776,2456.919217,2260.450153,2290.628302,89.8457369,-4285.130184,139.2813176,1655.226824,137.4592808
23.695,-0.226553385,-1.954059653,3.127839421,-0.257054959,0.290980507,0.168492357,0.556350359,-0.345231394,0.107918071,0.748093077,2.54660327,-1.297073693,36.86588661,-9.572562814,-6.371640277,-0.121373126,7.19494804,3.041995513,2.258261672,2223.334796,2445.111349,2260.604121,2294.201791,709.7837385,-4231.358769,-70.73106298,822.3251731,137.6040088
23.6975,0.650246499,-2.375808962,2.6794284,-0.254832543,0.290144926,0.174751514,0.556050277,-0.345130164,0.10820136,0.748322186,2.541719888,-1.270704411,36.59383035,-9.602631649,-6.457803455,-0.131161971,7.170986884,3.025814058,2.257983718,2225.551695,2435.762424,2260.096498,2294.739928,824.5188108,-3505.917135,-389.9590798,-389.0665774,137.7262325
23.7,0.690125836,-2.517382547,2.196056709,-0.247524371,0.288536488,0.17763191,0.555744491,-0.345029375,0.108481178,0.748555509,2.539201628,-1.240566378,36.31807012,-9.632452938,-6.543318324,-0.140928867,7.146958948,3.00942286,2.257677045,2227.45739,2427.581763,2258.654326,2292.256458,420.0990901,-3211.785965,-890.4454514,-1801.836529,137.8500696
23.7025,-0.382437764,-2.340945978,1.708326438,-0.23657537,0.282030021,0.179143166,0.555429554,-0.344930396,0.108751314,0.748795832,2.539128926,-1.207102337,36.03893569,-9.66202497,-6.628173843,-0.150664351,7.122870371,2.992828874,2.25734238,2227.65219,2419.703494,2255.644271,2285.730746,-472.9718223,-2501.175037,-1319.399914,-2927.752807,138.00046
23.705,-2.220798035,-1.854783664,1.430529924,-0.229613161,0.272961991,0.179960044,0.555100037,-0.34483508,0.109007739,0.749046864,2.541446664,-1.17088773,35.75673494,-9.691346674,-6.712359672,-0.160359126,7.098721965,2.976036763,2.256980403,2225.092531,2415.075888,2252.057326,2277.617694,-1699.279116,-1418.184616,-1634.39012,-3674.374291,138.1272129
23.7075,-4.897466636,-0.985747948,1.293782401,-0.22961421,0.263457566,0.181235305,0.554746939,-0.344742042,0.109248864,0.749316081,2.545687059,-1.132778676,35.4717656,-9.720417565,-6.79586614,-0.170004181,7.07451018,2.959048168,2.256591874,2219.155795,2412.612571,2247.47232,2267.358874,-2910.168069,-660.1453021,-1971.233374,-4333.43163,138.2553711
23.71,-8.045447773,0.161661155,1.247526733,-0.238523707,0.257102555,0.183610364,0.554358154,-0.344646489,0.109476429,0.749614333,2.55095702,-1.093838212,35.18431911,-9.749237692,-6.878684201,-0.179590909,7.050230979,2.941861915,2.256177648,2210.541691,2411.775161,2242.201159,2255.950536,-3950.844703,-67.37281169,-2240.691036,-4663.430556,138.3846339
23.7125,-11.37790255,1.511168085,1.25869978,-0.26087008,0.256960936,0.188029102,0.55392253,-0.344546457,0.109694591,0.749950095,2.556487463,-1.0549705,34.89465386,-9.777807579,-6.960805381,-0.18911121,7.025881361,2.924474517,2.25573846,2199.401571,2412.275707,2236.268865,2244.041721,-5226.393813,278.3582496,-2726.386688,-5114.285376,138.5151511
23.715,-15.02927237,3.12184746,1.281783761,-0.304259525,0.264219494,0.193766666,0.55343382,-0.344446324,0.109906201,0.750325475,2.562088352,-1.016673166,34.60296956,-9.806128153,-7.042221735,-0.198557579,7.001457666,2.90688207,2.255275152,2184.409722,2413.166952,2228.569226,2230.379109,-5569.713893,157.7943661,-2891.304951,-4739.675936,138.6731145
23.7175,-17.39724084,4.267379933,1.290976228,-0.352228392,0.275922398,0.196713087,0.552891574,-0.344352819,0.110111203,0.75073763,2.567965939,-0.979047154,34.30942044,-9.834200687,-7.122925801,-0.207923185,6.976955577,2.889081847,2.254788943,2171.553002,2413.064678,2221.81234,2220.343342,-5016.295679,-458.5657423,-2723.627834,-3582.183533,138.8057863
23.72,-18.7243724,5.013054705,1.282855189,-0.407432131,0.292612319,0.199168635,0.552299758,-0.344270481,0.110307007,0.751181834,2.574385697,-0.941941656,34.01413806,-9.862026731,-7.202910558,-0.217201938,6.952373783,2.871074199,2.254281205,2159.328243,2410.874124,2214.951087,2212.468191,-5065.595158,-1630.210032,-2962.142117,-2883.863979,138.9394287
23.7225,-18.94506531,5.309499607,1.238466957,-0.475698623,0.315820277,0.204048156,0.551663867,-0.34420025,0.110489266,0.751654141,2.581487073,-0.905180557,33.71724293,-9.889608053,-7.282169395,-0.226388533,6.927714763,2.852862366,2.253752909,2146.225026,2404.913628,2207.00163,2205.924022,-4466.869192,-2779.605007,-2806.835294,-1934.13346,139.1008029
23.725,-18.02955893,5.04700233,1.165342904,-0.5299819,0.335329048,0.209362473,0.550990012,-0.344143323,0.11065294,0.752150145,2.589462489,-0.868580929,33.41883467,-9.916946575,-7.360696088,-0.235478495,6.902982441,2.834450416,2.253204157,2136.993897,2396.976099,2200.91691,2202.797524,-3297.458775,-3732.475741,-2275.8518,-885.8676902,139.2360344
23.7275,-16.20666769,4.360750582,1.075292825,-0.576710902,0.351402168,0.213118212,0.550285222,-0.344102415,0.110794216,0.752663895,2.598575929,-0.831873726,33.11899592,-9.944044319,-7.438484784,-0.244468187,6.878181807,2.815842837,2.252634601,2129.737732,2386.25125,2195.622371,2201.494683,-2568.16784,-4655.083003,-1988.049718,-365.7132848,139.3719527
23.73,-13.90873698,3.478860191,1.009818167,-0.614424043,0.362098435,0.214086451,0.549554546,-0.34407705,0.110912536,0.753191871,2.608749412,-0.794910034,32.8178232,-9.970903336,-7.515529997,-0.253354823,6.853317645,2.797043343,2.252044047,2124.153058,2373.700684,2190.976662,2200.968957,-1838.186377,-5314.3988,-1753.660872,-232.8995398,139.5083724
23.7325,-11.42843966,2.595050321,1.017333936,-0.64055937,0.365648224,0.213837015,0.548798891,-0.344061333,0.111010611,0.753735585,2.619401657,-0.75783258,32.51544136,-9.997525646,-7.59182661,-0.26213645,6.828391486,2.778052715,2.251432666,2120.5468,2359.679256,2186.854066,2200.330186,-1141.090372,-6311.865542,-1812.854943,-558.6194645,139.6453171
23.735,-8.712886329,1.803640875,1.123759744,-0.661437202,0.363805696,0.215009967,0.548018551,-0.344047919,0.111093121,0.75429738,2.629832538,-0.720799544,32.21198476,-10.02391318,-7.667369882,-0.27081192,6.803402919,2.758870707,2.250800937,2118.447606,2342.141356,2181.912387,2198.17586,-408.8455698,-6408.730294,-1921.624771,-1161.376094,139.8101573
23.7375,-6.935635507,1.492146961,1.273398916,-0.673588863,0.3599509,0.217123635,0.547215699,-0.344032671,0.111164875,0.75487674,2.639620822,-0.683809071,31.90757121,-10.05006769,-7.742155474,-0.279380845,6.778353236,2.739499515,2.250149295,2118.502573,2327.635604,2177.245942,2194.523305,365.938621,-5630.088184,-2118.688368,-1948.272788,139.9478748
23.74,-5.868967727,1.565529351,1.442966025,-0.683942322,0.357598702,0.220356184,0.546391293,-0.344013401,0.111230277,0.755473203,2.648490011,-0.646953961,31.60230893,-10.07599073,-7.816179459,-0.287843536,6.753246118,2.719944154,2.249478013,2120.277299,2313.990915,2171.318945,2188.434496,1097.926041,-5678.741124,-3041.814473,-3279.148352,140.0858716
23.7425,-5.5276043,1.979470376,1.611383747,-0.696356367,0.360276761,0.226433772,0.545543271,-0.34398839,0.111293239,0.756088348,2.656182984,-0.610555853,31.29630757,-10.10168355,-7.889438352,-0.296200942,6.728085765,2.700210269,2.248787287,2123.992203,2299.241898,2162.03687,2178.127564,1529.50404,-5092.406335,-3843.468274,-4257.519332,140.2516925
23.745,-6.055275434,2.452543431,1.690127761,-0.707332668,0.368550452,0.233318568,0.544670413,-0.34395874,0.111356152,0.756722078,2.662713728,-0.574879684,30.98966579,-10.12714709,-7.961929128,-0.304454572,6.70287364,2.680301208,2.248077432,2127.924819,2288.528883,2152.101604,2167.146899,1585.258543,-3962.907719,-4483.488512,-4812.302825,140.3899914
23.7475,-7.41347324,2.897133904,1.703173441,-0.720457459,0.381130437,0.240242287,0.543773491,-0.343927583,0.111419337,0.757372214,2.668353327,-0.540063467,30.68247572,-10.1523819,-8.033649258,-0.312606406,6.677607504,2.660217838,2.247348732,2131.918495,2279.42736,2139.619428,2154.066049,1459.23219,-3407.319121,-5415.897116,-5490.233196,140.5283213
23.75,-9.415586566,3.253828756,1.697480006,-0.737056191,0.393826799,0.245303459,0.542851077,-0.343894995,0.111481505,0.758039751,2.673228827,-0.506432929,30.37485592,-10.17738813,-8.10459673,-0.320658813,6.65228191,2.639959013,2.246601037,2135.22098,2271.492288,2125.022118,2139.695734,964.4319199,-2940.979601,-6288.297805,-5910.729063,140.6666096
23.7525,-12.09286627,3.514407629,1.741336043,-0.759447258,0.404328481,0.247584586,0.541899878,-0.343859281,0.111539231,0.758728111,2.677419117,-0.474466019,30.06694909,-10.20216557,-8.174770079,-0.32861445,6.62689012,2.619522946,2.245834175,2136.740655,2264.722462,2108.177939,2124.512404,45.43726907,-2758.578453,-7757.741212,-6626.792534,140.8047634
23.755,-15.88933906,3.802013589,1.932500561,-0.794524135,0.414624938,0.248613708,0.540915263,-0.343820965,0.111589431,0.759440561,2.681106093,-0.444669588,29.75891454,-10.22671357,-8.244168426,-0.336476168,6.601427233,2.598909605,2.24504837,2135.448167,2257.699396,2086.233412,2106.561771,-1090.729236,-2422.950898,-8140.276203,-6336.410708,140.9702798
23.7575,-19.34184572,4.099361381,2.228350643,-0.832144778,0.422375275,0.250223519,0.539887793,-0.343779901,0.111633831,0.760183342,2.684207942,-0.417732348,29.45096198,-10.25103115,-8.312791508,-0.344246899,6.575890255,2.578120502,2.244243812,2131.287009,2252.607707,2067.476558,2092.830351,-2331.470089,-1932.950982,-7310.6265,-5012.342552,141.1079009
23.76,-22.78961679,4.534238893,2.633267624,-0.88080413,0.429574304,0.255504966,0.538806056,-0.343735727,0.111675644,0.76096393,2.686572779,-0.39438451,29.14333823,-10.27511701,-8.380639718,-0.351929556,6.550277449,2.557156435,2.24342053,2123.790816,2248.034641,2049.68028,2081.500058,-3990.078322,-1999.924751,-7261.258787,-4252.378243,141.2450957
23.7625,-26.50368531,5.253670947,3.166454223,-0.953050173,0.439484747,0.265827725,0.537661541,-0.343688792,0.111715213,0.761787788,2.688256526,-0.375146524,28.83630316,-10.29896961,-8.447714142,-0.359526906,6.524588646,2.536016031,2.242578804,2111.336617,2242.608084,2031.170264,2071.568459,-5027.189348,-2084.916866,-6103.26055,-2984.922552,141.409117
23.765,-28.93509042,5.998798045,3.60100758,-1.023706265,0.451095412,0.275651555,0.536447854,-0.343636098,0.111751686,0.762660512,2.689236402,-0.360372053,28.53015143,-10.3225872,-8.51401659,-0.36704146,6.498826883,2.514699111,2.241719329,2098.65487,2237.610056,2019.163977,2066.575445,-5371.71114,-2226.078276,-3947.509112,-1363.933817,141.5452106
23.7675,-30.3564276,6.828743631,3.996351522,-1.102820695,0.467519292,0.284612566,0.535162228,-0.343575018,0.111782826,0.763585144,2.689641272,-0.350143067,28.22518619,-10.34596789,-8.579549619,-0.374475357,6.47299916,2.493209747,2.240843387,2084.478062,2231.477692,2011.432718,2064.74879,-5773.828152,-2710.967311,-2374.220737,-304.3781212,141.680603
23.77,-30.77710356,7.672874077,4.349128327,-1.186341085,0.486996448,0.292805776,0.533807274,-0.343506073,0.111807267,0.764559351,2.689859198,-0.344114703,27.92170247,-10.36910976,-8.644316542,-0.381830251,6.44711375,2.471555523,2.239952526,2069.785729,2224.05522,2007.292873,2065.053555,-5832.78272,-3307.440078,-902.1273542,475.6270674,141.8153537
23.7725,-29.93466694,8.490432389,4.624280839,-1.269950404,0.507752641,0.30217889,0.532386852,-0.343428025,0.111829567,0.765579821,2.690060426,-0.341729676,27.62002273,-10.39201082,-8.708321416,-0.389107216,6.421176744,2.449744859,2.239047507,2055.314148,2214.940492,2006.922081,2067.126926,-6127.759206,-4364.870356,431.9646333,1114.101382,141.9492639
23.775,-27.6007823,9.418664027,4.800831522,-1.361909939,0.532512656,0.318012022,0.530904911,-0.343337861,0.11185715,0.766643562,2.69026963,-0.34236654,27.3204819,-10.41466908,-8.771569016,-0.396306653,6.395191249,2.427784198,2.238128301,2039.146933,2202.230868,2009.452696,2070.624062,-5623.083168,-4896.692483,1162.330996,1322.617165,142.1089055
23.7775,-24.78591771,10.13591426,4.777172535,-1.427133145,0.553812339,0.333993445,0.529366862,-0.34323166,0.111895975,0.767747209,2.690558583,-0.345338421,27.02340239,-10.43708258,-8.834064797,-0.403428214,6.369159522,2.405678775,2.237194931,2027.198732,2190.457029,2012.733736,2073.740011,-4387.827906,-4876.165064,1235.866866,1168.900872,142.2410115
23.78,-21.42747125,10.75649763,4.579450017,-1.479444197,0.577900079,0.348035171,0.527777339,-0.343103144,0.111952438,0.768888957,2.690878966,-0.350010907,26.72910428,-10.45924934,-8.895814838,-0.410470727,6.343082508,2.383431563,2.236247707,2017.207793,2177.850043,2015.632031,2076.468566,-3930.584446,-5652.858244,890.508056,1002.77184,142.3720958
23.7825,-17.18034204,11.31368241,4.221658049,-1.528833675,0.609689731,0.359757711,0.526140151,-0.342947024,0.112033107,0.770067158,2.691234108,-0.355800426,26.43788501,-10.48116739,-8.956825782,-0.417432144,6.316960021,2.36104227,2.235286887,2007.54581,2162.192738,2017.186277,2078.753871,-3196.356141,-5765.831501,125.5743478,608.6861285,142.5281575
23.785,-13.70503451,11.56033549,3.896458978,-1.560394375,0.636766117,0.365863563,0.524460846,-0.342763036,0.11214066,0.771277358,2.69201506,-0.362081535,26.14998414,-10.50283474,-9.017104774,-0.424309498,6.290793513,2.338510487,2.234312529,2001.226013,2149.020885,2016.259902,2079.511997,-2267.571813,-5209.488413,-848.750252,9.6763655,142.6571401
23.7875,-10.49543207,11.5065116,3.592976657,-1.583502814,0.664401568,0.370868169,0.522746751,-0.342553307,0.112276601,0.772513065,2.693780565,-0.368154281,25.86560576,-10.52424935,-9.076659392,-0.431098886,6.264584081,2.315836193,2.233324265,1996.207951,2136.145296,2012.942525,2078.802252,-1885.706718,-5025.977293,-1643.475481,-545.4852885,142.7849786
23.79,-7.583262088,11.14586028,3.296836546,-1.600512217,0.693738922,0.377444721,0.521005273,-0.342321018,0.112441436,0.773767492,2.697140655,-0.37335649,25.58493148,-10.54540915,-9.135497585,-0.437795472,6.238330237,2.293019124,2.232320724,1991.797479,2123.890999,2008.042525,2076.78457,-1724.386991,-4648.104181,-2159.839645,-1104.786003,142.9118475
23.7925,-5.043279706,10.36333445,2.95424723,-1.61190006,0.724448593,0.386514851,0.519243634,-0.342071808,0.112630835,0.775033682,2.702896563,-0.377144268,25.30810812,-10.56631201,-9.193627621,-0.44439352,6.212029812,2.270059604,2.231299838,1987.586016,2112.904775,2002.143327,2073.278322,-1890.749012,-4402.552106,-2542.135282,-1804.354246,143.0375281
23.795,-2.363745795,8.944004469,2.421491334,-1.621302074,0.758526683,0.398005109,0.51747113,-0.341810897,0.112840473,0.77630356,2.711806869,-0.378887221,25.03527954,-10.58695579,-9.25105804,-0.450886449,6.185680028,2.246957827,2.230259761,1982.343734,2101.878238,1995.331849,2067.762799,-1955.096999,-3593.254727,-2258.194432,-2141.667323,143.1869536
23.7975,-0.362048086,7.439640863,1.860512743,-1.626515935,0.781757894,0.406465384,0.515698322,-0.341541476,0.11306988,0.777568615,2.724398032,-0.377864706,24.76661283,-10.60733835,-9.307797632,-0.457266915,6.159276624,2.223712638,2.229199189,1977.810531,2094.938502,1990.852355,2062.569986,-1777.789825,-2236.428296,-1389.484803,-2061.746934,143.3103071
23.8,1.482201396,5.768940264,1.214054155,-1.629148643,0.798294385,0.412620376,0.51393214,-0.341265338,0.113318745,0.778823412,2.740996304,-0.373609073,24.50229592,-10.62745762,-9.363855419,-0.463526916,6.132814689,2.200321735,2.22811767,1973.454785,2090.696097,1988.384425,2057.454064,-1740.570861,-1233.96974,-598.8916456,-2090.680893,143.4324432
23.8025,3.54429762,3.812438739,0.443271499,-1.628259681,0.81028558,0.415865838,0.512174177,-0.340983069,0.113582899,0.780067202,2.761798654,-0.366051971,24.24253196,-10.64731172,-9.419240658,-0.469657913,6.106289605,2.176782585,2.227015546,1969.107677,2088.768653,1987.857897,2052.116581,-1349.999829,-239.0892337,114.7116823,-1763.28907,143.5775966
23.805,5.09082017,2.393952583,-0.095627291,-1.622628864,0.814620703,0.414296354,0.510423347,-0.340695826,0.113855738,0.781301146,2.786957411,-0.355330064,23.98753464,-10.66689903,-9.473962861,-0.47565096,6.079698471,2.153093544,2.225893415,1966.704786,2089.500651,1988.957983,2048.637619,-636.1870396,621.4303078,535.7429146,-1197.525256,143.6973825
23.8075,6.319751756,1.360461032,-0.419822745,-1.610321607,0.815392822,0.409419847,0.508676747,-0.340406732,0.114131002,0.782526695,2.816588046,-0.34168039,23.73752828,-10.68621833,-9.52803182,-0.481496838,6.053041953,2.129255075,2.224751993,1965.926741,2091.875804,1990.536611,2046.128955,-40.99761826,1050.242474,507.1976177,-911.0106656,143.8159491
23.81,7.139959796,0.726786634,-0.52377829,-1.592297892,0.815360792,0.404272535,0.506930741,-0.340120277,0.114402751,0.783745125,2.850759574,-0.325377545,23.49274642,-10.70526895,-9.58145764,-0.487186193,6.026323918,2.105269795,2.223591542,1966.499798,2094.751863,1991.493971,2044.082566,485.1657852,1029.433647,18.48577813,-845.3602144,143.9335054
23.8125,7.294871209,0.626448224,-0.373149503,-1.569224383,0.815834324,0.401395953,0.50518147,-0.339838808,0.11466524,0.784958713,2.889357159,-0.306709873,23.2534433,-10.72405086,-9.634250759,-0.492709671,5.99955029,2.081141797,2.222411761,1968.35257,2097.022973,1990.62904,2041.902154,943.7241227,570.0042926,-953.4807075,-1180.662527,144.0498441
23.815,6.569175835,1.155259624,0.033513984,-1.540239699,0.816905704,0.401529039,0.503424196,-0.339560418,0.114916825,0.78617149,2.931910866,-0.28595487,23.01990991,-10.74256487,-9.686421951,-0.498058048,5.972728025,2.056877671,2.221212435,1971.218418,2097.601884,1986.726567,2038.179253,996.4277335,-294.0335713,-1904.109588,-1653.550142,144.1880435
23.8175,5.194354283,2.145849025,0.502200724,-1.519000301,0.817965083,0.40371795,0.501653892,-0.339279147,0.115161733,0.787388485,2.977602243,-0.263318259,22.79246926,-10.76081265,-9.737982316,-0.503222349,5.945862651,2.032485864,2.219994241,1973.334709,2095.552805,1981.108492,2033.634403,578.7344502,-1402.980085,-2615.973251,-2165.935497,144.3020365
23.82,3.129087488,3.68639928,1.054346631,-1.50505612,0.821253682,0.405583389,0.499865442,-0.338987769,0.115405996,0.788614961,3.025498322,-0.238974261,22.57143989,-10.77879689,-9.788943246,-0.508193938,5.918955667,2.007971905,2.218758731,1974.11209,2090.586984,1973.646701,2027.349575,-187.3310177,-2757.319029,-3486.814532,-3127.634044,144.4148099
23.8225,0.095888667,6.078636253,1.77019419,-1.499764028,0.831721555,0.407376917,0.498050124,-0.338677952,0.115655376,0.789858878,3.074567924,-0.213267112,22.35712464,-10.79652136,-9.839316357,-0.512964585,5.892006256,1.983338797,2.217507709,1972.398054,2081.76621,1963.67442,2017.996233,-1174.072289,-3544.97904,-3660.611576,-3660.762906,144.5487263
23.825,-2.684448934,8.411169151,2.365502382,-1.505275639,0.847567046,0.41083074,0.496195761,-0.338341548,0.115915983,0.791130152,3.123745115,-0.186677636,22.14979692,-10.81399087,-9.889113405,-0.517526502,5.865015248,1.958591066,2.216242837,1968.241729,2072.862089,1955.343643,2009.045761,-2247.308782,-3638.222866,-3183.038188,-3730.770966,144.6591471
23.8275,-5.497430183,10.92607211,2.87702452,-1.519394499,0.871142466,0.418108383,0.494292409,-0.337971683,0.116193099,0.792436765,3.172099926,-0.159538495,21.94967373,-10.83121137,-9.938346176,-0.521872332,5.8379857,1.933734781,2.214966072,1961.16151,2063.575095,1947.759229,1999.342378,-3242.081095,-3610.490938,-2849.845513,-3966.832049,144.7683482
23.83,-8.208630098,13.45873008,3.252769832,-1.538814736,0.900865279,0.42806833,0.492334512,-0.337563277,0.116489469,0.793783444,3.218936356,-0.131946592,21.75689593,-10.84818982,-9.987026356,-0.5259951,5.810919203,1.908773842,2.213679818,1952.031323,2054.809634,1941.094416,1989.211601,-3967.62003,-3250.783034,-2449.657891,-4161.687957,144.8765392
23.8325,-10.69784774,15.85972947,3.412005571,-1.563439694,0.937484266,0.439469951,0.490319158,-0.337111969,0.116806618,0.79517306,3.263706939,-0.103835641,21.57153678,-10.86493418,-10.03516538,-0.529888132,5.783814814,1.88370855,2.21238679,1941.32341,2047.32118,1935.510939,1978.533938,-4790.298887,-2958.864822,-2303.203283,-4882.189805,144.9835139
23.835,-13.3482112,18.41331642,3.345277879,-1.598488417,0.988566136,0.452458571,0.488246556,-0.336614403,0.117145016,0.796606222,3.306040325,-0.07495158,21.3935989,-10.88145332,-10.0827743,-0.533544942,5.756672418,1.858538328,2.211090811,1928.079829,2040.01531,1929.578399,1964.800652,-4718.804081,-2458.749138,-2158.342924,-5230.893604,145.1104793
23.8375,-15.23309359,20.16058997,3.112829236,-1.631884241,1.036224423,0.461512538,0.486118954,-0.336070184,0.117501065,0.798081584,3.345870858,-0.044943878,21.22299786,-10.89775682,-10.12986357,-0.53695908,5.72949167,1.833260863,2.209795846,1917.729389,2035.027434,1924.719224,1952.37947,-3813.746709,-1917.781403,-2061.50849,-5168.86855,145.2151142
23.84,-16.72837129,21.41171994,2.775950819,-1.669306819,1.087907848,0.468369015,0.48393941,-0.335480787,0.117867682,0.799597029,3.383370703,-0.013419672,21.05957875,-10.91385489,-10.17644297,-0.540123964,5.702272226,1.807871338,2.208504385,1909.011095,2030.426403,1919.270857,1938.956309,-3359.489306,-2155.952756,-2641.216199,-6020.131989,145.3185349
23.8425,-17.99270513,22.2593986,2.354896815,-1.718541773,1.152761557,0.474658363,0.481712662,-0.334847428,0.118243236,0.801148738,3.418720364,0.02019745,20.90316292,-10.92975816,-10.22252144,-0.543032674,5.675015919,1.782365131,2.207218047,1900.931943,2024.247671,1911.513143,1922.27881,-2577.851039,-2527.690829,-3075.36061,-6035.060416,145.4412369
23.845,-18.53489361,22.38741925,2.058313643,-1.762488234,1.207718511,0.478452347,0.479444589,-0.334171576,0.118634114,0.802730962,3.452089782,0.056654982,20.75356316,-10.94547749,-10.26810696,-0.545677752,5.647727384,1.756740162,2.205938124,1896.12184,2017.787949,1903.894054,1908.781007,-1628.64169,-2989.345377,-3262.903191,-5014.053064,145.5423233
