t,ang acc x,ang acc y,ang acc z,ang vel x,ang vel y,ang vel z,quat x,quat y,quat z,quat w,acc x,acc y,acc z,vel x,vel y,vel z,pos x,pos y,pos z,mot 1,mot 2,mot 3,mot 4,dmot 1,dmot 2,dmot 3,dmot 4,vbat
11.2,-4.026673604,-0.505326687,0.794120731,-1.295213819,0.038977525,-0.048003307,-0.174949793,0.004149745,0.024747535,0.984258046,0.029412774,0.257792172,9.072094002,-0.024983611,0.567081174,-0.239973065,10.9811281,1.08795414,2.108774722,1067.742277,1087.616857,1046.746846,1036.779474,624.9450795,-624.2783263,-771.2542138,-939.5152924,162.1404428
11.2025,-4.576351462,-0.339046423,0.850520813,-1.306609486,0.036860149,-0.045447869,-0.176498579,0.004142791,0.024695564,0.983982627,0.033268566,0.25422198,9.053621224,-0.024953624,0.575504428,-0.243429992,10.98106235,1.089382848,2.108172587,1069.300619,1085.729525,1045.067412,1034.736417,560.9535166,-897.6776954,-549.4003229,-685.2671984,162.1229799
11.205,-4.955364484,-0.097827961,0.827227917,-1.318647088,0.035434572,-0.042172607,-0.178070234,0.004144841,0.024645464,0.983700379,0.03631653,0.249198404,9.03396038,-0.024915153,0.583969945,-0.246953898,10.98099611,1.090833207,2.10756336,1070.547045,1083.128468,1043.999844,1033.353138,410.0307637,-1267.18829,-341.4984411,-496.6086638,162.1045994
11.2075,-5.201343264,0.24803357,0.695849245,-1.333694623,0.035433864,-0.038243961,-0.179664959,0.004155385,0.024596065,0.983411238,0.038542926,0.242701237,9.01320801,-0.024869666,0.59247385,-0.250546729,10.98093059,1.092305077,2.10694653,1071.350773,1079.393583,1043.35992,1032.253373,150.2245086,-1429.811595,-145.3121064,-347.1189232,162.0814614
11.21,-5.230167667,0.553428892,0.511347947,-1.346944592,0.037127327,-0.035866767,-0.181286272,0.004174988,0.024547806,0.983114488,0.039933218,0.234660615,8.991485013,-0.024818676,0.601012293,-0.254210147,10.98086617,1.093797733,2.106321436,1071.298167,1075.97941,1043.273284,1031.617543,-174.0284368,-1372.644855,32.6673152,-239.8961515,162.0612654
11.2125,-5.082583819,0.846316813,0.282285683,-1.360691925,0.040140849,-0.034884622,-0.182933157,0.004202201,0.024499404,0.982810301,0.040517947,0.225100427,8.968934052,-0.024763712,0.609581495,-0.257945483,10.98080343,1.095311279,2.105687705,1070.48063,1072.530359,1043.523257,1031.053892,-498.1704972,-1462.04347,157.6795543,-269.3667067,162.0401066
11.215,-4.73162843,1.17025251,0.004787579,-1.376251021,0.044068556,-0.0349959,-0.184594698,0.004226485,0.024451468,0.98250066,0.040510905,0.214231496,8.945718593,-0.024706284,0.618177804,-0.261753694,10.98074407,1.09684637,2.105044005,1068.807315,1068.669193,1044.061681,1030.27071,-678.8098984,-1328.854878,217.644595,-317.4704763,162.013588
11.2175,-4.33462398,1.423263482,-0.195759749,-1.387418183,0.047073233,-0.035994937,-0.186261332,0.004238388,0.024405361,0.982187277,0.040118587,0.202249582,8.922029151,-0.024647851,0.626797746,-0.265635315,10.98068865,1.098403612,2.10438857,1067.086581,1065.886085,1044.61148,1029.46654,-684.4443681,-987.6664176,224.2254569,-345.9404958,161.9905379
11.22,-3.889180478,1.672529469,-0.335881935,-1.396164232,0.049965444,-0.037947532,-0.187924789,0.004232959,0.024357717,0.981871725,0.039458833,0.189338981,8.898084136,-0.024589797,0.635438084,-0.269590417,10.98063649,1.099983991,2.103720823,1065.385093,1063.730861,1045.182809,1028.541007,-627.4159608,-744.9724928,226.8254006,-369.6390288,161.9664866
11.2225,-3.444175203,1.923775898,-0.417584503,-1.403165946,0.053220398,-0.040292505,-0.189586443,0.004216774,0.02430663,0.981553656,0.03845638,0.175523473,8.874133087,-0.024533404,0.64409587,-0.273618566,10.9805866,1.101587793,2.10304219,1063.949501,1062.161222,1045.745607,1027.618345,-468.2465948,-489.0183062,226.2494801,-331.0964846,161.9415943
11.225,-3.026574701,2.169310966,-0.439757895,-1.40923225,0.057476379,-0.042107065,-0.191255291,0.004202226,0.024253465,0.981231166,0.036949105,0.160701794,8.850455065,-0.02447984,0.652768501,-0.277718781,10.98053784,1.103214608,2.102354496,1063.04386,1061.285769,1046.314056,1026.885525,-255.9150134,-246.5555656,264.9806598,-226.5609528,161.915675
11.2275,-2.557571527,2.430385556,-0.432791311,-1.416521875,0.063990577,-0.042981801,-0.192940683,0.004200205,0.024200032,0.980902288,0.034805166,0.144776797,8.827355592,-0.024430148,0.661453781,-0.281889479,10.98048874,1.104864377,2.101658966,1062.669926,1060.928444,1047.07051,1026.48554,-28.66260416,-38.48037536,303.2107821,-33.90739784,161.8833676
11.23,-2.177729406,2.594815929,-0.427890455,-1.422522918,0.070403921,-0.042985379,-0.194643391,0.004215059,0.024146203,0.980566802,0.032001147,0.127813163,8.805164247,-0.02438525,0.670149975,-0.286128423,10.98043793,1.10653695,2.10095558,1062.900547,1061.093368,1047.83011,1026.715988,169.2536699,135.6397494,346.7019378,234.6358598,161.8554288
11.2325,-1.787848361,2.676877504,-0.446812129,-1.427875574,0.07751222,-0.043281725,-0.19636547,0.004252695,0.024093541,0.980224188,0.028486686,0.109860389,8.784237183,-0.02434595,0.678855866,-0.290432663,10.98038337,1.108231959,2.100243854,1063.516194,1061.606643,1048.80402,1027.658719,303.4455755,285.9827872,491.7806038,586.7511837,161.826421
11.235,-1.293436973,2.661197716,-0.504658582,-1.433232065,0.086281177,-0.044326386,-0.198109636,0.004317706,0.024043509,0.979873823,0.02422485,0.090962099,8.76495559,-0.024312958,0.687570807,-0.294798493,10.98032378,1.109949127,2.099523085,1064.417775,1062.523281,1050.289013,1029.649744,317.4307548,381.4372167,601.2152414,864.0540043,161.7903609
11.2375,-0.858628027,2.55120997,-0.580523321,-1.436343227,0.093282455,-0.04537623,-0.199867733,0.004406098,0.023998374,0.979517291,0.019322318,0.071357351,8.747722898,-0.024286907,0.696294771,-0.299221399,10.98025935,1.111687933,2.098792035,1065.103348,1063.513829,1051.810096,1031.978989,225.7226514,450.0804469,663.2330829,1045.995716,161.7592591
11.24,-0.410118385,2.35242138,-0.678982566,-1.437642058,0.099715017,-0.046521273,-0.201625473,0.00450933,0.023955679,0.979157569,0.013935661,0.051395555,8.732965284,-0.024268384,0.705028395,-0.303696015,10.98019179,1.113448607,2.098049791,1065.546388,1064.773684,1053.605178,1034.879722,126.4362681,560.2219326,754.239655,1229.81877,161.7270569
11.2425,0.039863937,2.097262721,-0.787764284,-1.437745396,0.105620751,-0.047908084,-0.20336942,0.004618882,0.023910786,0.978797529,0.008199162,0.03141182,8.721130507,-0.024257957,0.713773022,-0.308216087,10.98012283,1.115231497,2.097295952,1065.73553,1066.314939,1055.581294,1038.128083,22.01466189,698.2261609,818.0292624,1348.989281,161.6939371
11.245,0.48387838,1.803619554,-0.893226481,-1.436639601,0.110611217,-0.049657964,-0.20509716,0.004736365,0.023865169,0.97843759,0.002078689,0.01154896,8.712683954,-0.02425621,0.722530734,-0.312774454,10.98005291,1.117036006,2.096530835,1065.656461,1068.264815,1057.695325,1041.624669,-67.75208237,956.7858852,940.5643151,1551.780949,161.6597071
11.2475,1.007994908,1.453179941,-0.989477303,-1.434074941,0.114920787,-0.052394855,-0.20681463,0.00486617,0.023821554,0.978076414,-0.004516969,-0.008196758,8.708102921,-0.024263769,0.73130438,-0.317363024,10.97998109,1.118861295,2.095754655,1065.396769,1071.098868,1060.284116,1045.886988,-96.62331195,1106.911463,946.1695753,1544.708076,161.6173456
11.25,1.441897979,1.196839469,-1.023254586,-1.431101374,0.117091931,-0.055377202,-0.208528547,0.00500893,0.023777619,0.977712669,-0.011641387,-0.027843437,8.707872039,-0.024281331,0.740097606,-0.321972755,10.97990753,1.120707173,2.094967812,1065.173345,1073.799372,1062.426173,1049.348209,-67.68944409,1106.518441,848.9223178,1338.408692,161.580974
11.2525,1.88189664,1.00672719,-0.988660916,-1.427093462,0.11840133,-0.058968947,-0.210241835,0.005156914,0.023734613,0.977345797,-0.019196904,-0.047346353,8.71248029,-0.024309674,0.748914872,-0.326593643,10.97983309,1.122573327,2.094170305,1065.058322,1076.631461,1064.528727,1052.579032,-24.54185417,1103.820036,837.8281672,1242.004538,161.5434953
11.255,2.334281477,0.878660007,-0.893029131,-1.421984072,0.119417729,-0.06253576,-0.211954474,0.005294272,0.023691338,0.976975995,-0.026956499,-0.066613304,8.72241758,-0.02434968,0.757761471,-0.331214712,10.97975875,1.124460384,2.093361557,1065.050636,1079.318472,1066.615313,1055.558232,4.938133473,966.8189634,838.3234197,1128.443521,161.5051024
11.2575,2.811300329,0.814290435,-0.737396295,-1.415555935,0.120391169,-0.065141374,-0.213658873,0.005402726,0.023640022,0.97660526,-0.034668219,-0.085420012,8.73817139,-0.024402328,0.766643539,-0.335824018,10.9796866,1.126370648,2.092541276,1065.083013,1081.465555,1068.720344,1058.221249,-26.31053707,730.022042,935.7219344,1110.92559,161.4656128
11.26,3.428186808,0.773886435,-0.517282783,-1.406471298,0.12194256,-0.066343656,-0.215352034,0.005485804,0.023583055,0.976234216,-0.042411698,-0.103618028,8.760217245,-0.024468693,0.775568056,-0.340408679,10.97961699,1.128304404,2.091709086,1064.919083,1082.968582,1071.293923,1061.11286,-143.0614111,321.9838227,947.0490503,1027.805952,161.4169654
11.2625,3.993305804,0.732230057,-0.333356562,-1.397577827,0.123808552,-0.065970416,-0.217027587,0.005550045,0.023521486,0.975864261,-0.050312475,-0.120998924,8.78901588,-0.024549934,0.784542842,-0.344954904,10.97954961,1.130262234,2.090863945,1064.367706,1083.075474,1073.45559,1063.360279,-366.5263024,-226.3257655,849.715049,892.5706182,161.3753827
11.265,4.629802685,0.631567377,-0.165037132,-1.386987077,0.126303807,-0.065410381,-0.218679898,0.005599574,0.023456218,0.975496667,-0.058444275,-0.137369967,8.825007514,-0.024647273,0.793576548,-0.349448047,10.97948374,1.132244944,2.090004946,1063.086451,1081.836953,1075.542498,1065.575713,-783.3659521,-850.9007916,865.1408277,997.3372406,161.3327265
11.2675,5.50061268,0.393778789,0.027191746,-1.372380106,0.12955058,-0.065595813,-0.220313324,0.005641582,0.023391087,0.975130423,-0.066915005,-0.152720126,8.868601761,-0.024761963,0.802678636,-0.353872653,10.97941808,1.134251755,2.089132372,1060.450876,1078.820971,1077.781294,1068.346965,-1162.903298,-1330.265894,745.2797119,1050.197475,161.2803103
11.27,6.335464357,0.079231846,0.19341548,-1.358888283,0.131845821,-0.066092721,-0.221927076,0.005683468,0.023323918,0.974765837,-0.07584224,-0.166950027,8.920176111,-0.024895262,0.811859352,-0.358212533,10.97935197,1.136281833,2.088248178,1057.271935,1075.185624,1079.268897,1070.8267,-1456.109074,-1623.560953,479.0800957,1032.61698,161.2356164
11.2725,7.303290099,-0.351959294,0.376448671,-1.343781069,0.132600566,-0.066053481,-0.223517985,0.005731049,0.023251789,0.974403811,-0.085305005,-0.179922782,8.980070004,-0.025048389,0.821129687,-0.36245083,10.97928575,1.138334252,2.087354368,1053.17033,1070.703166,1080.176694,1073.51005,-1752.154615,-1870.916558,243.2481809,1099.390129,161.1898849
11.275,8.384625897,-0.858514572,0.572361028,-1.32705118,0.131482412,-0.065179426,-0.225079578,0.005782814,0.023176261,0.974045957,-0.095222277,-0.19144902,9.048581127,-0.025222487,0.830501332,-0.366570106,10.97922026,1.140408617,2.086451483,1048.511162,1065.831041,1080.485138,1076.323651,-1921.003271,-1955.904792,-38.718669,1134.371423,161.1433067
11.2775,9.581604476,-1.419542147,0.775623748,-1.307941323,0.128217237,-0.063305212,-0.226606196,0.005837592,0.023098818,0.973693722,-0.10550393,-0.201358869,9.125956273,-0.025418583,0.839986615,-0.370552447,10.97915519,1.142505062,2.085538679,1043.565314,1060.923642,1079.983101,1079.181907,-2120.914823,-2047.916768,-409.3222074,1230.974954,161.0957306
11.28,11.07952302,-2.111921352,1.017922447,-1.2807131,0.122577226,-0.060598431,-0.228094815,0.005893715,0.02302077,0.973347976,-0.116037598,-0.209537732,9.212384438,-0.025637547,0.849598427,-0.374379565,10.97909006,1.14462373,2.084614877,1037.906588,1055.591457,1078.438527,1082.478526,-1932.388944,-1772.746753,-703.857237,1164.042172,161.0375255
11.2825,12.29354471,-2.67976989,1.213628717,-1.253425189,0.116650252,-0.058431422,-0.229538136,0.005948093,0.022941938,0.973010651,-0.126674707,-0.215797754,9.307994417,-0.025880055,0.859350144,-0.378032924,10.97902505,1.146765418,2.083680353,1033.903369,1052.059908,1076.463815,1085.002118,-1336.515558,-1114.797877,-879.8792538,957.2565744,160.9881291
11.285,13.34759734,-3.214532958,1.394009206,-1.221596118,0.109340465,-0.055941801,-0.230924903,0.005995713,0.022863756,0.972684588,-0.137210178,-0.219879931,9.412849915,-0.026146555,0.869255524,-0.381493871,10.97896113,1.148930824,2.082736561,1031.22401,1050.017468,1074.03913,1087.264809,-740.6175648,-427.5280844,-1068.351014,971.2167892,160.9378587
11.2875,14.28736765,-3.79549535,1.570426386,-1.179881466,0.099076449,-0.051893762,-0.232248202,0.006031686,0.022787424,0.972371606,-0.147431208,-0.221610781,9.52693974,-0.02643724,0.879328605,-0.384743769,10.97889987,1.151120188,2.081784474,1030.200282,1049.922268,1071.12206,1089.858202,80.42856039,448.2825753,-969.7715328,988.2897561,160.8765951
11.29,14.71572308,-4.21500984,1.661813007,-1.143076972,0.089313698,-0.047653784,-0.233513685,0.006049631,0.022713872,0.972070546,-0.157093394,-0.221070537,9.650169651,-0.026752025,0.889583584,-0.387764158,10.97884154,1.153333046,2.080823646,1031.626153,1052.258881,1069.190273,1092.206257,1136.994115,1534.130421,-526.2947788,1075.747058,160.8248192
11.2925,14.70717807,-4.553817335,1.670534411,-1.105066288,0.078208054,-0.042817573,-0.234729837,0.006046329,0.022647635,0.97177946,-0.165990783,-0.218411017,9.782363066,-0.027090534,0.900034691,-0.390536903,10.97878498,1.155569632,2.079852606,1035.885252,1057.59292,1068.490586,1095.236937,2223.9702,2687.486805,35.66243377,1407.317125,160.7723717
11.295,14.31512717,-4.820142417,1.599380488,-1.067137432,0.066144542,-0.037899889,-0.235905579,0.006021518,0.02259553,0.971496204,-0.173961923,-0.213812564,9.923260676,-0.027452101,0.910696061,-0.393044347,10.97872789,1.157830205,2.078870396,1042.746004,1065.696315,1069.368585,1099.242843,3394.439928,3942.822866,848.9388488,1925.037568,160.7194312
11.2975,13.47962218,-5.003214342,1.432166304,-1.030941332,0.053527293,-0.03340277,-0.237045865,0.005973459,0.022560323,0.971219668,-0.180834322,-0.207398626,10.07252376,-0.027835772,0.921581592,-0.395269469,10.97866712,1.160114814,2.077876953,1052.857452,1077.307034,1072.73528,1104.862125,5164.268571,5898.483727,2154.509965,2915.414929,160.6659787
11.3,12.04805079,-5.148568971,1.139041821,-0.991669067,0.038482977,-0.028933554,-0.238157211,0.005897226,0.022543208,0.970948393,-0.186385631,-0.199348265,10.22973408,-0.028240329,0.932704809,-0.397196035,10.97860118,1.162423766,2.076872465,1068.567347,1095.188733,1080.141135,1113.819918,6277.996197,7143.850221,3292.732326,3660.50284,160.6013567
11.3025,10.59459473,-5.23223219,0.842032799,-0.963752601,0.026356838,-0.026169133,-0.239246107,0.005788612,0.022544527,0.970680918,-0.190418233,-0.189863617,10.39439696,-0.028664308,0.944078722,-0.398808747,10.97853022,1.16475766,2.075858103,1084.247433,1113.026285,1089.198942,1123.164639,6662.770415,7594.372605,4169.515795,4081.371533,160.5471933
11.305,9.008956093,-5.306638372,0.527525196,-0.941382638,0.014722664,-0.024616374,-0.240320498,0.005648173,0.022565925,0.970415339,-0.192837162,-0.179200305,10.56594461,-0.029106046,0.955715686,-0.400093383,10.97845359,1.167117072,2.074835282,1101.881199,1133.160596,1100.988714,1134.226775,7243.584632,8283.563573,5082.61303,4642.730642,160.4928169
11.3075,7.415717385,-5.387683448,0.228505681,-0.923344393,0.003187173,-0.024164271,-0.2413929,0.005479995,0.022608951,0.970148592,-0.193641369,-0.167740033,10.74374277,-0.029563716,0.967627273,-0.401036923,10.97837051,1.169501968,2.07380471,1120.465356,1154.444103,1114.612007,1146.378292,7497.692171,8584.719589,5751.194313,5025.342318,160.438351
11.31,5.915464797,-5.476695715,-0.019882617,-0.909279173,-0.008931602,-0.024938506,-0.242465914,0.005290416,0.022668429,0.969880193,-0.192929223,-0.155675221,10.92710603,-0.030035377,0.979824146,-0.401627656,10.97828196,1.171913081,2.072768197,1139.369659,1176.084194,1129.744685,1159.353487,8205.814094,9345.934048,6813.259276,5781.365124,160.383888
11.3125,4.319336433,-5.571661223,-0.233478771,-0.895901853,-0.024793913,-0.026663153,-0.243538117,0.005093552,0.022737041,0.969610655,-0.191006346,-0.143120353,11.11530357,-0.030519021,0.992315949,-0.40185527,10.97818926,1.174350716,2.071728581,1161.494426,1201.173773,1148.678303,1175.285118,7917.998317,8892.78467,6940.253612,5836.056049,160.3186856
11.315,3.21005633,-5.619009536,-0.337372877,-0.887806211,-0.038929675,-0.028195724,-0.244601346,0.004905301,0.022807928,0.969342162,-0.188253553,-0.130041353,11.30757449,-0.031012619,1.00511121,-0.40171092,10.97809358,1.176817137,2.070689611,1178.959651,1220.548118,1164.445953,1188.533767,6714.634762,7294.022799,6180.17003,5245.121057,160.2645867
11.3175,2.37281861,-5.613412485,-0.376783927,-0.882766048,-0.053215584,-0.029475414,-0.245646342,0.004741486,0.022877581,0.969077093,-0.185074164,-0.116373915,11.50313907,-0.031514167,1.018217257,-0.40118727,10.97799458,1.179315442,2.069655095,1195.0676,1237.643887,1179.579153,1201.510723,6754.816731,6918.161286,6421.801313,5617.933889,160.2108536
11.32,1.704856076,-5.538853902,-0.377545421,-0.879571178,-0.069608864,-0.030634021,-0.246668784,0.004605316,0.022942735,0.968816645,-0.181624525,-0.102171627,11.70121441,-0.032021718,1.031640165,-0.400278524,10.97789292,1.18184724,2.068627846,1212.733735,1255.138924,1196.55496,1216.623437,6218.028397,5912.636064,6000.495803,5447.860731,160.1469227
11.3225,1.418859303,-5.423376809,-0.363168904,-0.878510304,-0.082376162,-0.031282481,-0.247664223,0.004495836,0.023000018,0.968562074,-0.177981299,-0.087483824,11.90102479,-0.032533409,1.045384713,-0.398980411,10.97778946,1.184413745,2.067610821,1226.157742,1267.207068,1209.581632,1228.750027,5140.31954,4369.736709,4987.31566,4723.767846,160.0941872
11.325,1.360997307,-5.255659546,-0.359789592,-0.877262161,-0.094713699,-0.031551347,-0.248633164,0.004402055,0.023047159,0.968313399,-0.173987238,-0.07248218,12.10181416,-0.033047485,1.059454365,-0.397290169,10.97768655,1.187016386,2.066604991,1238.435332,1276.987608,1221.491538,1240.242276,4751.11883,3615.516889,4606.581432,4459.125164,160.0421014
11.3275,1.422408917,-5.041761869,-0.380253207,-0.874418557,-0.107417613,-0.031575747,-0.24957774,0.004310793,0.023081408,0.968070248,-0.169422041,-0.057378715,12.30285384,-0.0335623,1.073851283,-0.395206484,10.97758606,1.189657692,2.065609946,1249.913336,1285.284652,1232.614539,1251.045653,4420.293224,3080.027561,4301.542545,4111.34534,159.9906144
11.33,1.524239407,-4.768261032,-0.436014217,-0.869513741,-0.120339028,-0.031747263,-0.250502525,0.004209605,0.023101917,0.96783157,-0.164051443,-0.04244412,12.50345004,-0.03407632,1.088576351,-0.392729431,10.97748795,1.192339728,2.064624243,1260.536798,1292.387746,1242.999251,1260.799002,4479.513729,2996.013141,4443.174359,4004.717084,159.9399132
11.3325,1.571238501,-4.382258854,-0.535680432,-0.862641425,-0.134487363,-0.032617294,-0.251407007,0.004098458,0.02311345,0.967597417,-0.157883557,-0.027803609,12.70294766,-0.034588114,1.103629224,-0.389860391,10.97739046,1.195063668,2.063648729,1272.310905,1300.264718,1254.830411,1271.069238,4144.420337,2867.275474,4249.171835,3514.244132,159.880052
11.335,1.483074325,-4.034920163,-0.631230373,-0.856781829,-0.144683393,-0.034043702,-0.252298798,0.003977401,0.023122657,0.967365669,-0.150909718,-0.013783286,12.90073758,-0.035096336,1.119008395,-0.386601966,10.97729244,1.197829544,2.062684049,1281.2589,1306.724123,1264.24511,1278.370223,3392.745159,2632.213751,3670.07039,2673.711701,159.8310312
11.3375,1.221611261,-3.695410684,-0.718834982,-0.851317136,-0.153501808,-0.036213538,-0.253187394,0.003847652,0.023132103,0.967133803,-0.143165283,-0.000754247,13.09626011,-0.035599704,1.134711277,-0.382957889,10.97719372,1.200637983,2.061731062,1289.274631,1313.425786,1273.180763,1284.437797,3338.443531,3043.860537,3795.872084,2435.915872,159.7829573
11.34,0.707428959,-3.333663043,-0.796926978,-0.846428604,-0.162774597,-0.039569921,-0.254082054,0.003706724,0.023138258,0.966899499,-0.134621577,0.010921944,13.2890079,-0.036096976,1.150734296,-0.378932931,10.97709508,1.203490195,2.060790442,1297.951118,1321.943426,1283.224471,1290.549802,3077.34721,3207.689389,3547.012691,2100.203264,159.726417
11.3425,0.140389167,-3.089205103,-0.837485943,-0.844561532,-0.16969881,-0.042242778,-0.254990408,0.00353851,0.023134055,0.966660975,-0.124907529,0.020929282,13.47852823,-0.036586925,1.167072994,-0.374532808,10.97699843,1.206386246,2.059861071,1304.661367,1329.464233,1290.915827,1294.938813,2671.47514,3083.630866,2916.258882,1682.112756,159.680293
11.345,-0.515296096,-2.913886761,-0.864695265,-0.845238037,-0.176091725,-0.043835904,-0.255914555,0.003331824,0.023114315,0.966417819,-0.11373934,0.02912583,13.66441474,-0.037068314,1.183722134,-0.369764089,10.97690455,1.209325704,2.058942974,1311.308494,1337.36158,1297.805765,1298.960366,2727.514558,3204.356266,2620.875506,1599.23871,159.6352391
11.3475,-1.198761746,-2.793411642,-0.892384762,-0.847883041,-0.182242582,-0.045054495,-0.256854285,0.003078201,0.023072808,0.966170216,-0.100895288,0.035462351,13.84630463,-0.037539882,1.200675818,-0.364634117,10.97681453,1.212309179,2.05803675,1318.29894,1345.486015,1304.020204,1302.935007,2956.862292,3280.944501,2338.672329,1624.831213,159.5910994
11.35,-1.86694643,-2.724778827,-0.9247875,-0.852633051,-0.188343045,-0.046891224,-0.257809248,0.002788338,0.023014898,0.965917999,-0.086580409,0.039934957,14.02387198,-0.038000332,1.21792759,-0.359150943,10.97672672,1.21533743,2.057144607,1326.092805,1353.766302,1309.499127,1307.084522,3662.284402,3649.737818,2278.806709,1891.515248,159.5480916
11.3525,-2.605297557,-2.672531331,-0.962814215,-0.860074291,-0.195950169,-0.049714582,-0.258786548,0.002470515,0.022948722,0.96565894,-0.070934332,0.042346642,14.19682993,-0.03844833,1.235470542,-0.353323264,10.97663889,1.218410703,2.056267693,1336.610362,1363.734704,1315.414238,1312.392583,4034.536393,3640.353104,2091.185883,1990.77622,159.4978252
11.355,-3.14755919,-2.627916306,-0.987409087,-0.867223958,-0.202794176,-0.05212574,-0.259789615,0.002126908,0.022876322,0.96539194,-0.053987222,0.042621477,14.36492575,-0.038882521,1.253297416,-0.347160383,10.97654941,1.221529485,2.055406411,1346.265487,1371.968068,1319.955056,1317.038403,3966.56443,3255.223152,1769.259246,1863.7932,159.4570777
11.3575,-3.599820745,-2.554212412,-0.99853902,-0.875188714,-0.209957906,-0.054411564,-0.260821504,0.001759735,0.022800496,0.96511598,-0.035780939,0.040714717,14.52793502,-0.03930155,1.271400688,-0.340672156,10.97645512,1.22469426,2.054560369,1356.443184,1380.01082,1324.260534,1321.711549,4446.104068,3468.273564,1867.884931,2000.077856,159.4175365
11.36,-4.023486909,-2.415412851,-0.989035585,-0.885811803,-0.218366031,-0.057156406,-0.261882624,0.001377702,0.022727169,0.964830657,-0.01653593,0.036684501,14.68565644,-0.039704092,1.289772657,-0.333868957,10.97635291,1.227905811,2.053730677,1368.496007,1389.309436,1329.294481,1327.038793,4263.006777,3329.645822,1839.442225,1868.420792,159.3715019
11.3625,-4.262914108,-2.260052016,-0.955381255,-0.89562167,-0.224743875,-0.059471625,-0.262972248,0.000983929,0.022655571,0.964536034,0.003604747,0.030639635,14.83790939,-0.040088907,1.308405509,-0.326761653,10.97624205,1.231165255,2.052918413,1377.758218,1396.659049,1333.457745,1331.053653,3398.717704,2826.171364,1679.218409,1496.64587,159.3343301
11.365,-4.363731759,-2.081637547,-0.885929507,-0.906620803,-0.229992528,-0.061639824,-0.264097242,0.000576193,0.022580696,0.964230217,0.024584412,0.022467727,14.98452963,-0.040454888,1.327291375,-0.319361583,10.97612468,1.234473288,2.052123625,1385.489596,1403.440293,1337.690573,1334.522022,2760.631431,2589.525737,1724.348248,1302.248375,159.2984036
11.3675,-4.336945976,-1.903447417,-0.77963521,-0.918314083,-0.234307736,-0.063675633,-0.265263845,0.000162705,0.022510647,0.963911161,0.046121051,0.01208538,15.12536537,-0.040801129,1.346422377,-0.311680535,10.97600226,1.237829,2.051346812,1391.561375,1409.606677,1342.079486,1337.564895,1989.656619,2279.342926,1819.711605,1142.329927,159.2635143
11.37,-4.155393384,-1.745720446,-0.620262222,-0.929827709,-0.237659175,-0.065735244,-0.266470037,-0.00025227,0.022460519,0.963578927,0.068078387,-0.00033317,15.26027565,-0.041126984,1.365790661,-0.303730735,10.97587566,1.241231303,2.050588768,1395.437879,1414.837007,1346.789131,1340.233672,1227.808135,2038.916112,2173.357249,1137.890862,159.229878
11.3725,-3.783244925,-1.590772458,-0.361050324,-0.942406494,-0.241047169,-0.067981339,-0.267711526,-0.000670066,0.022439603,0.963234362,0.090415924,-0.014537685,15.38912854,-0.041432141,1.385388421,-0.295524823,10.97574626,1.244679864,2.049849675,1397.700415,1419.801258,1352.946273,1343.254349,504.9744429,1577.835637,2348.917147,1115.416056,159.1909626
11.375,-3.378868509,-1.482383884,-0.091359266,-0.951313416,-0.24389784,-0.069252668,-0.268987703,-0.001093717,0.022450582,0.962877481,0.113068538,-0.030390673,15.51180043,-0.041716676,1.405207911,-0.287075839,10.97561478,1.248174736,2.049128921,1397.962751,1422.726185,1358.533716,1345.810752,-105.3209108,907.6603335,2316.943967,1070.62675,159.1597373
11.3775,-2.927739905,-1.368988184,0.218753733,-0.958022574,-0.247317954,-0.069548123,-0.270297548,-0.001522276,0.022493836,0.962508522,0.135816733,-0.047740387,15.62817781,-0.041981106,1.425241442,-0.278397193,10.97548135,1.25171621,2.048426147,1397.173811,1424.33956,1364.530992,1348.607483,-388.9892124,435.8949393,2439.65379,1181.66473,159.1297593
11.38,-2.473336587,-1.225695139,0.543330637,-0.963012652,-0.251221329,-0.068868298,-0.271626634,-0.001952334,0.022564075,0.962131648,0.158313106,-0.06599845,15.73816249,-0.042226437,1.445481382,-0.269502635,10.97534599,1.255305405,2.047742817,1396.017805,1424.90566,1370.731985,1351.719076,-449.333172,7.028376397,2476.289132,1336.914349,159.1008137
11.3825,-2.039927538,-1.021241899,0.857183185,-0.966841385,-0.255005857,-0.066889906,-0.272960643,-0.002384099,0.02264985,0.961751179,0.180255959,-0.084576069,15.84167305,-0.042454187,1.465920144,-0.260406213,10.97521028,1.258943238,2.047080653,1394.927145,1424.374701,1376.912438,1355.292055,-380.1959657,-412.9121289,2629.045508,1679.4825,159.0731118
11.385,-1.545871177,-0.691930788,1.186418258,-0.971159366,-0.258455666,-0.063096233,-0.27428167,-0.002810996,0.022741658,0.96137249,0.201149605,-0.102762176,15.93865161,-0.04266641,1.486550172,-0.251122237,10.97507555,1.262631389,2.046442328,1394.116825,1422.841099,1383.877213,1360.116488,-187.2913991,-638.3269514,2415.603293,1843.237485,159.0413063
11.3875,-1.141150335,-0.351550649,1.402776986,-0.974944811,-0.260152537,-0.059144106,-0.275560854,-0.003221581,0.022831426,0.961004082,0.220365626,-0.119480107,16.02907081,-0.042865695,1.507363924,-0.241665224,10.97494216,1.266372353,2.045832321,1393.990688,1421.183067,1388.990455,1364.508242,66.04071932,-643.167121,1845.042365,1802.414441,159.0159994
11.39,-0.72466588,0.042217755,1.550300164,-0.978482738,-0.260569038,-0.055042711,-0.276786499,-0.003610724,0.022914357,0.960649483,0.23748997,-0.134232999,16.11292542,-0.043055152,1.528353861,-0.232049854,10.97481038,1.270167114,2.045253035,1394.447029,1419.625264,1393.102425,1369.12856,326.3635189,-554.3025862,1552.041706,2044.682252,158.9919369
11.3925,-0.209146292,0.553769983,1.652726835,-0.981268961,-0.259549288,-0.050337202,-0.277962678,-0.003976743,0.022987524,0.960307685,0.252235037,-0.147073001,16.19023269,-0.043238389,1.549512428,-0.222290904,10.9746812,1.274015249,2.044705016,1395.622506,1418.411554,1396.750663,1374.731653,536.124815,-276.5467311,1134.904476,2037.325092,158.9645035
11.395,0.216788205,0.996505516,1.683853909,-0.981924895,-0.257365475,-0.04646855,-0.279087656,-0.004316597,0.023047618,0.959979396,0.26429362,-0.157880419,16.26104226,-0.043419465,1.570832055,-0.212403171,10.9745551,1.27791721,2.044189194,1397.127653,1418.24253,1398.776947,1379.315186,726.8113637,140.7737962,647.3003715,1788.808587,158.9428459
11.3975,0.603247054,1.441717211,1.66756381,-0.980895449,-0.253794253,-0.042423987,-0.280160852,-0.004629143,0.023091585,0.959664975,0.273446152,-0.166597729,16.3254343,-0.043602839,1.592305163,-0.202401372,10.97443106,1.281874119,2.043705127,1399.256562,1419.115423,1399.987165,1383.675696,972.6618001,515.2709463,404.3869104,1689.930025,158.9224394
11.4,0.925773545,1.884261276,1.617771366,-0.978581149,-0.249340842,-0.038349802,-0.28119313,-0.004917676,0.023119537,0.959361352,0.279664731,-0.173583291,16.383514,-0.043793298,1.613924165,-0.192300053,10.97430756,1.285885501,2.043250369,1401.990962,1420.818885,1400.798882,1387.764836,1252.506337,839.7704416,309.8695916,1550.455303,158.903071
11.4025,1.137481093,2.326330867,1.535604839,-0.974793527,-0.244474462,-0.034692693,-0.282203445,-0.005189524,0.023128037,0.959063145,0.283049552,-0.17949675,16.43541321,-0.043995888,1.63568149,-0.182113494,10.97418374,1.289950856,2.042821252,1405.519094,1423.314275,1401.536513,1391.427973,1723.433206,1201.246033,411.9879644,1487.881688,158.8849543
11.405,1.238736767,2.861694675,1.409621734,-0.968955448,-0.238425435,-0.031111335,-0.283209123,-0.005447401,0.023114654,0.95876543,0.283605163,-0.184961754,16.48129767,-0.044215818,1.657569601,-0.171855612,10.97405832,1.294070324,2.042414783,1410.608128,1426.825115,1402.858822,1395.204244,1976.32438,1310.846037,619.3244524,1264.036757,158.8646602
11.4075,1.20133727,3.305709631,1.284249273,-0.963905713,-0.232792578,-0.028639473,-0.28421837,-0.00568324,0.023082951,0.95846585,0.281094643,-0.190300191,16.52137199,-0.04445838,1.679581028,-0.161539862,10.97392942,1.298244002,2.042030872,1415.400716,1429.868505,1404.633135,1397.748156,1976.154987,1177.725915,885.7039124,877.3284281,158.8489517
11.41,1.079082224,3.715471737,1.129243106,-0.9601865,-0.225626252,-0.026320676,-0.285229239,-0.005889313,0.023035616,0.958165035,0.275331431,-0.19549137,16.55587447,-0.044728847,1.701708405,-0.151179163,10.97379678,1.302472425,2.041671136,1420.488903,1432.713745,1407.287341,1399.590886,2242.063225,1158.30643,1347.842597,645.261741,158.8344898
11.4125,0.915289659,4.098487554,0.884896598,-0.958129967,-0.214296733,-0.023433922,-0.286241328,-0.006070476,0.022971479,0.957863144,0.266535689,-0.200576133,16.58506482,-0.045032377,1.723944512,-0.140785826,10.97366324,1.306756367,2.041336111,1426.611032,1435.660037,1411.372348,1400.974465,2210.212451,989.7324396,1585.639688,380.6033109,158.8185727
11.415,0.825789861,4.267731376,0.610883311,-0.957997312,-0.202491082,-0.020873005,-0.287257993,-0.006244203,0.022885602,0.957559213,0.255336396,-0.205731484,16.60922199,-0.045373916,1.746282313,-0.130371499,10.97353364,1.311096741,2.041026045,1431.539965,1437.662407,1415.21554,1401.493903,1906.210114,718.0169922,1518.439878,110.0197345,158.8065027
11.4175,0.835414221,4.226409407,0.243978799,-0.958189205,-0.189184357,-0.018298623,-0.28828686,-0.006424271,0.02278028,0.957250839,0.242349128,-0.211281118,16.62864866,-0.045758097,1.768715011,-0.119947112,10.97341124,1.315494665,2.040741341,1436.142083,1439.250122,1418.964548,1401.524564,1770.964496,589.6565974,1398.838227,-28.09723409,158.7956672
11.42,0.93864868,3.99969547,-0.20064293,-0.957474463,-0.175817633,-0.016143181,-0.289327067,-0.006605011,0.022667205,0.956938048,0.227697265,-0.217238777,16.64368107,-0.046189148,1.791236101,-0.109522831,10.97329543,1.319951671,2.040483697,1440.394788,1440.61069,1422.209731,1401.353417,1594.43778,527.0000043,1105.137658,-54.68791184,158.7858506
11.4225,1.141661527,3.586923196,-0.711870729,-0.954404502,-0.164271091,-0.015488209,-0.290368658,-0.006776104,0.022551802,0.956623773,0.211335977,-0.223286335,16.65468082,-0.046670812,1.813839421,-0.099108025,10.97318432,1.324469271,2.040255223,1444.114272,1441.885122,1424.490236,1401.251124,1470.365273,590.7734567,757.8951895,51.92198944,158.7772555
11.425,1.477713568,2.982131144,-1.329831971,-0.949451683,-0.15530166,-0.018248264,-0.291408031,-0.006935361,0.02243538,0.956309071,0.193463518,-0.229320057,16.66201809,-0.047206267,1.836519207,-0.08871125,10.9730758,1.32904659,2.040055553,1447.746614,1443.564557,1425.999207,1401.613027,1153.712009,673.8291842,385.8952901,257.4036337,158.7683434
11.4275,1.829939979,2.478727396,-1.781640909,-0.946526163,-0.151689533,-0.023931245,-0.292450622,-0.007092969,0.022319181,0.955992181,0.174685715,-0.235549858,16.66606463,-0.047798072,1.859270135,-0.078340231,10.97296939,1.333682431,2.039882635,1449.882832,1445.254268,1426.419712,1402.538142,625.6075396,767.9414201,87.61755066,514.9635468,158.7620767
11.43,2.252479174,2.056250855,-2.103941231,-0.943488582,-0.149158205,-0.031543834,-0.293501439,-0.007261309,0.02221297,0.95567128,0.155767684,-0.242164567,16.66719726,-0.04844812,1.882087371,-0.068001861,10.97286481,1.338377163,2.039734552,1450.874652,1447.404264,1426.437294,1404.187845,189.4325498,951.7535338,26.69532637,756.8671576,158.757003
11.4325,2.712232325,1.723658088,-2.301688631,-0.938126758,-0.146325339,-0.039149328,-0.294551249,-0.007441044,0.022129482,0.955348921,0.137137332,-0.248838052,16.66580389,-0.049157621,1.904966602,-0.057702199,10.97275832,1.343130989,2.039612118,1450.829994,1450.013036,1426.553189,1406.322478,-257.9144099,1157.771042,164.0609579,904.088767,158.7529094
11.435,3.173690198,1.491634174,-2.368466666,-0.929591104,-0.143090396,-0.045343063,-0.29558331,-0.007626872,0.022066206,0.955030363,0.118885709,-0.254965963,16.66227168,-0.049927106,1.927904065,-0.047446485,10.97264598,1.347944702,2.039518112,1449.58508,1453.193119,1427.257599,1408.708288,-770.2975506,1512.414083,518.8852407,996.1619752,158.7499857
11.4375,3.685418847,1.29805936,-2.348684279,-0.91677778,-0.13879982,-0.051094998,-0.29658681,-0.007819514,0.022011153,0.954719222,0.101185277,-0.260148775,16.65696807,-0.050756447,1.950896551,-0.037239184,10.97252592,1.35281885,2.039453784,1446.978507,1457.575106,1429.147615,1411.303288,-1075.202714,1671.909202,872.8095967,830.8797394,158.7478131
11.44,4.072868659,1.182221396,-2.284201024,-0.905591315,-0.135073622,-0.055303196,-0.297562675,-0.008025912,0.021950443,0.954415482,0.084354049,-0.264399384,16.65022906,-0.051644902,1.973941396,-0.027084042,10.97239742,1.357752533,2.039417796,1444.209066,1461.552665,1431.621647,1412.862687,-1132.593609,1613.829176,1130.450119,442.1252451,158.7471026
11.4425,4.452625134,1.092215514,-2.192650573,-0.895896437,-0.131586787,-0.059818096,-0.298521124,-0.008254813,0.021877628,0.954116067,0.068796198,-0.268056276,16.64235296,-0.052591184,1.997036462,-0.016984139,10.97225969,1.362743659,2.039406554,1441.315539,1465.644252,1434.799866,1413.513914,-1179.368931,1774.027725,1468.708485,70.03017941,158.7475175
11.445,4.951608955,1.005778779,-2.054305051,-0.885981421,-0.128017223,-0.065786911,-0.299472814,-0.008513144,0.021789199,0.953817719,0.054845263,-0.27147206,16.63359845,-0.053593538,2.020180094,-0.006941957,10.97211217,1.367790408,2.03941698,1438.312221,1470.422804,1438.96519,1413.212838,-943.0594301,1696.739677,1514.096213,-257.6122,158.749296
11.4475,5.415726706,0.954676859,-1.91041572,-0.877133453,-0.125636911,-0.070829383,-0.30041488,-0.008792322,0.021688528,0.953521373,0.042370923,-0.274517462,16.62418629,-0.054649843,2.043371075,0.003040539,10.97195299,1.372892277,2.039449161,1436.600241,1474.127951,1442.370347,1412.225853,-451.5821077,1390.094111,1275.05326,-472.43632,158.7518294
11.45,5.888629887,0.933199952,-1.732420096,-0.86539703,-0.123668437,-0.075566159,-0.301336192,-0.00907821,0.02157889,0.953230604,0.031028162,-0.276774372,16.61428854,-0.055757709,2.06660855,0.012961812,10.97178081,1.378049217,2.039503384,1436.054311,1477.373275,1445.340456,1410.850656,-0.285035402,1196.982079,1074.18647,-542.7097805,158.7554343
11.4525,6.30238014,0.940836155,-1.526931803,-0.850954739,-0.121656621,-0.079790698,-0.302229302,-0.009362,0.02145992,0.952947848,0.020564006,-0.27796388,16.60401615,-0.056914585,2.089891941,0.022820633,10.97159738,1.383260007,2.03957956,1436.598816,1480.112861,1447.741279,1409.512304,474.9386378,943.7785257,787.0131848,-441.9015896,158.7599123
11.455,6.54882091,0.985162605,-1.294433505,-0.834289537,-0.119720854,-0.083178028,-0.303100041,-0.009645878,0.02133093,0.952671234,0.011025169,-0.278286083,16.5934108,-0.058117858,2.113220846,0.032615968,10.9714057,1.388522517,2.039675949,1438.429004,1482.092167,1449.275522,1408.641148,1053.538305,667.2943681,439.6133715,-198.9665898,158.7654231
11.4575,6.5394469,1.076573697,-0.995112044,-0.814231941,-0.117861566,-0.086499769,-0.303970937,-0.009944115,0.021189702,0.952393488,0.002782101,-0.27854012,16.58244332,-0.059364947,2.13659493,0.042346855,10.97121124,1.393834672,2.039789054,1441.866508,1483.449333,1449.939346,1408.517471,1407.494849,329.1463264,23.72878295,125.9092051,158.7732029
11.46,6.211535747,1.172225838,-0.737047748,-0.798689129,-0.116530956,-0.088685309,-0.304866977,-0.010264701,0.021039712,0.952106489,-0.003972564,-0.279611347,16.57102516,-0.060653382,2.160013823,0.052012302,10.97101912,1.399195462,2.039916181,1445.466478,1483.737899,1449.394166,1409.270694,1502.262059,-17.11662791,-476.0173507,449.3735485,158.7806376
11.4625,5.483014244,1.254015173,-0.480768797,-0.783826829,-0.114643426,-0.089994236,-0.305799831,-0.010596802,0.020890929,0.95180639,-0.009597582,-0.281911581,16.55902203,-0.061980881,2.183477014,0.061611192,10.9708323,1.404606781,2.040058259,1449.377818,1483.36375,1447.559259,1410.764339,1677.348965,-213.6114643,-1138.589315,740.020007,158.7890332
11.465,4.078906316,1.271323032,-0.187223921,-0.765837448,-0.110886505,-0.090666149,-0.306769666,-0.010923212,0.020750347,0.951493166,-0.014692201,-0.285454485,16.54626,-0.0633454,2.206983757,0.071142196,10.97065194,1.410071966,2.040218118,1453.853223,1482.669842,1443.701219,1412.970794,1521.832301,-193.1326554,-1703.480356,793.7570505,158.800186
11.4675,2.449567157,1.16431718,0.039637216,-0.751259377,-0.106525816,-0.090694733,-0.30776084,-0.011229311,0.020622856,0.951171883,-0.019796762,-0.289713992,16.53253904,-0.064745182,2.230532985,0.080603694,10.97047651,1.415595423,2.040400411,1456.98698,1482.398086,1439.041857,1414.733124,1042.668547,80.69329045,-2144.977736,592.2892359,158.8103531
11.47,0.407528489,0.879603592,0.244269366,-0.739848611,-0.101940847,-0.090357396,-0.308762493,-0.011509176,0.020511761,0.950846008,-0.025203484,-0.294344725,16.51763239,-0.066178783,2.254123235,0.089993705,10.97030262,1.421179635,2.040608628,1459.066566,1483.073308,1432.97633,1415.932241,607.2463444,498.3862698,-2605.60743,337.0570805,158.8213948
11.4725,-1.836359891,0.431061783,0.4286773,-0.735094853,-0.098311731,-0.089788921,-0.309779115,-0.011775226,0.020412712,0.950513997,-0.030714623,-0.299556091,16.50129298,-0.0676451,2.277752596,0.099309844,10.97012912,1.426824608,2.040843243,1460.023211,1484.890018,1426.01382,1416.41841,78.56657784,1026.53015,-2881.963623,11.99396968,158.8331368
11.475,-4.045100591,-0.203350381,0.584566601,-0.743130265,-0.09691403,-0.088874775,-0.310822036,-0.012049127,0.02032122,0.950171993,-0.035853719,-0.305804277,16.48327154,-0.069143382,2.301418675,0.108549305,10.96995482,1.43252939,2.041102492,1459.459399,1488.205959,1418.566512,1415.992211,-601.6184108,1732.831087,-3188.58098,-342.6428344,158.8456919
11.4775,-6.249976028,-1.134242499,0.727903754,-0.766150872,-0.098391171,-0.086910077,-0.311880868,-0.012331966,0.020239156,0.949823328,-0.040727305,-0.312773475,16.46334607,-0.070673248,2.325118595,0.117708885,10.96977649,1.43829481,2.041387409,1457.015119,1493.554173,1410.070915,1414.705196,-1163.060026,2064.110677,-2891.792078,-522.5203561,158.8616574
11.48,-7.4752514,-2.007583601,0.801131003,-0.791147729,-0.102305226,-0.084666756,-0.31293417,-0.012610276,0.02017198,0.94947506,-0.045862618,-0.31975278,16.4413268,-0.072234694,2.348849009,0.126785016,10.96958946,1.444123062,2.041700607,1453.644099,1498.526512,1404.107552,1413.379609,-1564.688025,1894.874671,-2010.692067,-477.0508959,158.8756821
11.4825,-7.910392852,-2.929769292,0.818666174,-0.817179077,-0.109092489,-0.082476445,-0.313968258,-0.012869496,0.020126093,0.949131717,-0.051815859,-0.326299102,16.4170539,-0.073828109,2.372606136,0.135773806,10.96939025,1.450016779,2.04204454,1449.191679,1503.028547,1400.017455,1412.319941,-1902.65768,1570.363539,-1265.428286,-318.7806092,158.8904194
11.485,-7.678235691,-3.859691101,0.788453814,-0.841758862,-0.118128161,-0.080311561,-0.314974339,-0.013099635,0.020107146,0.948796198,-0.059005638,-0.332141208,16.39040703,-0.075454279,2.396385805,0.144671095,10.96917705,1.455978176,2.042420691,1444.13081,1506.37833,1397.780411,1411.785706,-2098.565474,923.6303907,-444.6112626,-61.64060403,158.9057218
11.4875,-6.729562426,-4.773267039,0.702537899,-0.862988368,-0.129445371,-0.078079681,-0.315953649,-0.013304024,0.020118115,0.948467959,-0.067458072,-0.337363329,16.36130714,-0.077114387,2.420183525,0.153472534,10.96894969,1.462007595,2.042828119,1438.698852,1507.646698,1397.794399,1412.011738,-2394.138841,-0.103659055,446.6085032,238.2479905,158.9216745
11.49,-4.9707952,-5.836138706,0.544298757,-0.883000314,-0.144999156,-0.075971857,-0.316920456,-0.013498299,0.020157328,0.948142049,-0.076857959,-0.34250553,16.32971599,-0.078810005,2.443994561,0.162173669,10.96871014,1.468102705,2.043264124,1432.160116,1506.377812,1400.013453,1412.976946,-2358.541068,-903.6129015,1077.834992,404.5136612,158.9415296
11.4925,-3.186655063,-6.691642515,0.378249775,-0.893858118,-0.159071915,-0.075174411,-0.317883208,-0.013691039,0.020219311,0.947815624,-0.087132046,-0.347894828,16.29564674,-0.080543076,2.467814015,0.170770044,10.96845967,1.474261746,2.043726109,1426.906146,1503.128634,1403.183574,1414.034307,-2035.618693,-1640.766897,1402.714019,382.7214762,158.9586393
11.495,-1.336866831,-7.507894457,0.190044216,-0.897783781,-0.174411153,-0.075310509,-0.318851973,-0.013892527,0.020294847,0.947485337,-0.098171224,-0.353909568,16.25915629,-0.082315882,2.491636919,0.179257294,10.96820013,1.480482268,2.044211015,1421.982023,1498.173977,1407.027023,1414.890553,-2085.149739,-2391.012845,1712.609733,244.1336933,158.9762999
11.4975,0.657535589,-8.404883074,-0.057998414,-0.894112672,-0.195225026,-0.075694485,-0.319841501,-0.014122551,0.020371479,0.9471462,-0.109578531,-0.361090439,16.22033936,-0.084130988,2.515458315,0.187631232,10.96793522,1.486761425,2.044715238,1416.480398,1491.17357,1411.746622,1415.254975,-1949.429225,-2615.503852,1689.458191,-7.011897249,158.9980914
11.5,1.948956024,-9.03128836,-0.289991378,-0.883739468,-0.215060535,-0.07556806,-0.320866759,-0.014407008,0.020433649,0.946793114,-0.120766559,-0.369984082,16.17932496,-0.085991172,2.539273333,0.19588793,10.96767032,1.493097434,2.045234942,1412.234876,1485.096458,1415.474314,1414.855494,-1615.341454,-2374.699236,1423.299755,-299.4282486,159.0167242
11.5025,2.733896455,-9.446166525,-0.556032764,-0.867481493,-0.237505426,-0.07491966,-0.321916709,-0.014757381,0.020470128,0.946429838,-0.131499736,-0.380228188,16.13628648,-0.087899336,2.563077265,0.204023783,10.96740929,1.499491158,2.045770672,1408.403691,1479.300074,1418.863121,1413.757834,-1437.981799,-2237.144494,1299.033657,-527.2426339,159.0358199
11.505,3.119992588,-9.615571714,-0.842939819,-0.851048953,-0.262109572,-0.074797428,-0.322972183,-0.01517708,0.020472821,0.946062935,-0.141708935,-0.391175824,16.0914214,-0.089858392,2.586865619,0.212035556,10.9671551,1.50594341,2.046324101,1405.044967,1473.910735,1421.969482,1412.21928,-1181.104345,-2063.876294,1168.721903,-678.3531417,159.0552796
11.5075,3.201757063,-9.420116558,-1.120196534,-0.842710484,-0.288914417,-0.077204218,-0.324021826,-0.01566492,0.020444219,0.945696167,-0.151314469,-0.402438158,16.04493193,-0.091871142,2.610634162,0.2199204,10.96690807,1.512453318,2.046895415,1402.498169,1468.980692,1424.706731,1410.366068,-868.0267672,-2105.317132,1078.117205,-838.8017806,159.0751565
11.51,3.264743219,-8.734442374,-1.381826207,-0.844791568,-0.320675272,-0.083346567,-0.325056722,-0.016218057,0.02039069,0.945332437,-0.160195152,-0.413705502,15.99702247,-0.093940138,2.634378956,0.227675859,10.96666564,1.519019565,2.047483642,1400.704834,1463.38415,1427.360068,1408.025271,-416.6362171,-2031.912661,811.074215,-854.2391816,159.0994648
11.5125,3.454197007,-7.82784214,-1.512604835,-0.849303806,-0.343879343,-0.089334138,-0.32607161,-0.016840095,0.020314288,0.944973416,-0.168021547,-0.424800295,15.94789376,-0.09606755,2.658096374,0.235299872,10.96642623,1.525641042,2.048087221,1400.414988,1458.821129,1428.762102,1406.094872,130.0696708,-1823.030775,313.6275213,-757.4085785,159.1200843
11.515,3.794378336,-6.689095902,-1.559320154,-0.847385828,-0.361834106,-0.094286697,-0.32705447,-0.017527278,0.020216279,0.944623283,-0.17464275,-0.43531063,15.8977434,-0.09825502,2.681783118,0.242790765,10.96618972,1.532317883,2.048706543,1401.355182,1454.268996,1428.928206,1404.238229,632.4090434,-1983.652112,-276.172881,-804.4639592,159.1410607
11.5175,4.181267896,-5.229954886,-1.56601352,-0.833650595,-0.377086623,-0.098401638,-0.327999033,-0.018263629,0.020107374,0.944284278,-0.180145854,-0.445001074,15.8467493,-0.100503542,2.705436215,0.250147239,10.96595408,1.53905095,2.04934193,1403.577033,1448.902868,1427.381237,1402.072552,913.2360643,-1919.336127,-860.5563986,-790.524148,159.1666232
11.52,4.307829634,-4.058275645,-1.571994413,-0.814096566,-0.38527087,-0.100641021,-0.328901142,-0.01902376,0.020005266,0.943957978,-0.184796371,-0.453691123,15.7950703,-0.102813351,2.729053023,0.257368339,10.9657151,1.545841914,2.049993731,1405.921362,1444.672315,1424.625424,1400.285608,914.0697551,-1599.714467,-1347.062857,-712.4604565,159.1882352
11.5225,4.115579613,-3.037293598,-1.611881771,-0.792419337,-0.390337816,-0.102278808,-0.329756604,-0.019787749,0.019919046,0.943646083,-0.188745099,-0.461209116,15.7428497,-0.105183837,2.752631209,0.264453418,10.9654697,1.55269331,2.050662337,1408.147382,1440.904296,1420.645923,1398.51025,772.6579019,-1410.483221,-1711.729028,-699.4829665,159.2101496
11.525,3.704913463,-2.17885832,-1.681694781,-0.775434871,-0.39433249,-0.104435002,-0.330567335,-0.020540425,0.019852633,0.943348209,-0.192033774,-0.467594232,15.69020838,-0.107613485,2.776168737,0.271402106,10.96521455,1.559606638,2.051348751,1409.784652,1437.619899,1416.066779,1396.788193,411.0708669,-1199.174106,-1852.817527,-656.1060239,159.2323001
11.5275,3.23230519,-1.518560036,-1.759529996,-0.767937685,-0.397841588,-0.108173403,-0.331353707,-0.021274427,0.019807838,0.943057418,-0.194494746,-0.473503482,15.637233,-0.110099846,2.799663851,0.278214268,10.96494828,1.566579943,2.052052693,1410.202736,1434.908425,1411.381835,1395.22972,-182.1418908,-1094.919094,-1931.04515,-624.1938783,159.2547175
11.53,2.910840244,-0.928742899,-1.806114141,-0.766427307,-0.401267599,-0.114274106,-0.332134819,-0.021980548,0.019785073,0.942767312,-0.196039683,-0.479540772,15.58399286,-0.11263954,2.823115049,0.284889982,10.96467021,1.573611622,2.052774565,1408.873942,1432.145304,1406.411553,1393.667224,-806.063427,-966.2351536,-1625.161612,-516.1147399,159.2819031
11.5325,3.030416589,-0.580525324,-1.767966375,-0.768701194,-0.403632344,-0.120163217,-0.332911682,-0.022651078,0.019782554,0.942477866,-0.196573434,-0.485709193,15.53055987,-0.115228297,2.846521068,0.291429516,10.9643805,1.580701832,2.053516051,1406.172419,1430.07725,1403.256027,1392.649146,-1363.755329,-807.2981233,-1002.756042,-363.3344216,159.304777
11.535,3.637670696,-0.355360194,-1.62534457,-0.772133503,-0.405896143,-0.12623301,-0.333674148,-0.023284475,0.019793738,0.942192943,-0.195896126,-0.491656089,15.47700377,-0.117861027,2.86988086,0.297833297,10.96408042,1.587850968,2.05427824,1402.055166,1428.108813,1401.397773,1391.850551,-1802.988303,-768.7715638,-535.0633649,-309.3713541,159.3278565
11.5375,4.581570053,-0.223872469,-1.400502816,-0.772060642,-0.407735222,-0.131632388,-0.33441181,-0.023881502,0.019813623,0.9419164,-0.193775855,-0.497026311,15.42338029,-0.120531916,2.893193564,0.304101881,10.96377113,1.595059697,2.055061334,1397.157477,1426.233392,1400.580711,1391.102289,-2020.734,-690.1703502,-141.8885303,-328.15503,159.3510898
11.54,5.689287111,-0.213040114,-1.110466923,-0.760112702,-0.40812969,-0.134981814,-0.335131517,-0.024452692,0.019842224,0.941645606,-0.189714443,-0.502037167,15.36971438,-0.123234557,2.916458474,0.310235909,10.96345231,1.602326141,2.055863067,1391.951496,1424.657961,1400.68833,1390.209776,-2195.675689,-539.7522225,121.9358071,-473.2734171,159.3744876
11.5425,6.80704234,-0.358420887,-0.749870033,-0.731528685,-0.40714924,-0.13603269,-0.335836658,-0.025006634,0.019881078,0.941379165,-0.183326709,-0.506786535,15.31601654,-0.125962095,2.939675007,0.316236071,10.9631219,1.609649095,2.056680831,1386.179099,1423.534631,1401.19039,1388.735922,-1937.232737,-211.0435234,128.7872332,-626.7041485,159.4027279
11.545,7.331528323,-0.613903647,-0.477415871,-0.703992311,-0.406567992,-0.135488907,-0.336526418,-0.025545588,0.019931941,0.941117319,-0.17448456,-0.511227175,15.26228089,-0.128707394,2.96284267,0.322103068,10.96277749,1.617029081,2.057512181,1382.265332,1423.602744,1401.332266,1387.076256,-1303.875536,312.4526688,-125.8808224,-750.345022,159.4263765
11.5475,7.32609007,-0.984429303,-0.250855833,-0.680235335,-0.407543843,-0.135361038,-0.337201061,-0.026076178,0.019992063,0.940859886,-0.163052159,-0.515354717,15.20848155,-0.131463218,2.985961024,0.327837567,10.96241886,1.62446856,2.058354805,1379.659721,1425.096894,1400.560985,1384.984197,-818.2293357,1029.948242,-640.3749241,-987.5459733,159.4501192
11.55,6.761569748,-1.505517414,-0.019635808,-0.658143696,-0.411061828,-0.136394701,-0.337862847,-0.02660859,0.02005903,0.940605845,-0.148866785,-0.519230755,15.15457094,-0.134222413,3.009029643,0.333440155,10.96204574,1.631968396,2.059207085,1378.174185,1428.752485,1398.130392,1382.138526,-289.3761964,1632.493023,-1156.082085,-1064.176845,159.4786888
11.5525,5.920529959,-1.954993171,0.15115199,-0.644492523,-0.416196799,-0.137622833,-0.338526302,-0.027157246,0.020131918,0.940349599,-0.131712446,-0.523310449,15.10046735,-0.136978096,3.032048076,0.33891129,10.96165974,1.639526412,2.060067311,1378.21284,1433.259359,1394.780575,1379.663313,224.5519454,2013.737456,-1568.4734,-969.3218529,159.5025388
11.555,4.805507744,-2.371113008,0.297169147,-0.631958279,-0.422864534,-0.137723431,-0.339205435,-0.027719187,0.020220206,0.940085973,-0.111851488,-0.527998131,15.04606508,-0.139723834,3.055015807,0.344251256,10.96126122,1.647139302,2.060935378,1379.296945,1438.821172,1390.288025,1377.291916,547.3614939,2282.000639,-1914.086299,-908.0193883,159.5264041
11.5575,3.532558485,-2.738480344,0.407633991,-0.61744084,-0.429707034,-0.136047126,-0.33990646,-0.028288423,0.020330396,0.939812731,-0.089719991,-0.533444511,14.99124881,-0.142453817,3.077932213,0.349460115,10.96085105,1.65480469,2.061812278,1380.949648,1444.669362,1385.210144,1375.123216,714.1614209,2229.752673,-2064.429811,-808.8093395,159.5502612
11.56,2.18531998,-3.038149823,0.458661737,-0.604496366,-0.436248697,-0.132985057,-0.340631749,-0.028870106,0.020457606,0.939528924,-0.065592131,-0.539698606,14.93589468,-0.14516301,3.100796532,0.354537673,10.96043197,1.662521485,2.062697822,1382.867752,1449.969935,1379.965876,1373.24787,794.4939839,1975.986027,-2225.074364,-771.0717239,159.5740836
11.5625,0.739619629,-3.309961151,0.45942229,-0.59864861,-0.444532464,-0.129905179,-0.341395428,-0.029474667,0.020595426,0.939229224,-0.039656225,-0.547188105,14.87985474,-0.147847282,3.123607819,0.359483443,10.96000711,1.670289308,2.063590518,1384.922118,1454.549292,1374.084772,1371.267857,638.3095183,1249.48241,-2039.03379,-706.922212,159.6025994
11.565,-0.080801485,-3.448123541,0.440556719,-0.603916316,-0.452747368,-0.128931997,-0.342202702,-0.030094987,0.020746055,0.938911899,-0.012551988,-0.556031963,14.82298554,-0.150503517,3.146364924,0.364296639,10.95957574,1.678107575,2.064490469,1386.0593,1456.217348,1369.770707,1369.713259,265.751225,139.0520746,-1607.047999,-643.1167727,159.6262812
11.5675,-0.254503196,-3.471413906,0.449772489,-0.617352254,-0.462883929,-0.129600845,-0.343039942,-0.030709672,0.020916898,0.938582394,0.014714424,-0.565743763,14.76517151,-0.153129691,3.16906647,0.368976169,10.95913441,1.685978553,2.065400539,1386.250874,1455.244553,1366.049532,1368.052274,-183.9916706,-1020.26723,-1568.786167,-799.650736,159.6498527
11.57,0.367566839,-3.361016732,0.529665508,-0.634561363,-0.476159074,-0.130796315,-0.343885816,-0.031308784,0.021102301,0.9382489,0.041343451,-0.575630351,14.70632144,-0.155724921,3.19171084,0.373520639,10.95868401,1.693905271,2.06632429,1385.139341,1451.116011,1361.926776,1365.715005,-644.3646421,-1927.92824,-1526.10545,-932.8863388,159.6779814
11.5725,1.442052215,-3.183545783,0.652055637,-0.641472088,-0.486185929,-0.130745899,-0.344720978,-0.031897426,0.021286499,0.937918648,0.066873917,-0.585097475,14.64636173,-0.158289487,3.214296172,0.377928373,10.95823,1.701890657,2.067265331,1383.029051,1445.604912,1358.419004,1363.387842,-1080.747948,-2494.82497,-1500.081711,-1007.106073,159.7012697
11.575,2.733094023,-2.995844576,0.800470447,-0.634756076,-0.493324353,-0.12888165,-0.345527121,-0.032484711,0.021455009,0.937598375,0.090983737,-0.593600343,14.5852425,-0.160824814,3.236820367,0.382197448,10.95777733,1.709938118,2.068226487,1379.735602,1438.641887,1354.426367,1360.679475,-1491.854377,-2917.071103,-1719.907907,-1127.184993,159.7243751
11.5775,3.880058679,-2.872256917,0.937609385,-0.619061179,-0.498197271,-0.12570504,-0.346285173,-0.033080048,0.021600214,0.937294966,0.1134457,-0.600581467,14.52294436,-0.163333436,3.259281113,0.386325749,10.95732734,1.718049409,2.069208245,1375.569779,1431.019556,1349.819465,1357.751917,-1837.100144,-3100.968011,-2004.700509,-1188.228053,159.7473107
11.58,4.53445451,-2.895107647,1.030676469,-0.596835315,-0.501154836,-0.121727518,-0.346994277,-0.033684007,0.021729097,0.937008564,0.133945614,-0.606045863,14.4594576,-0.165818933,3.281675915,0.390311036,10.95687824,1.726224435,2.070208572,1370.550101,1423.137046,1344.402865,1354.738334,-2342.412182,-3439.835277,-2531.305614,-1299.04052,159.7700217
11.5825,4.543604323,-3.118032598,1.079753242,-0.565971181,-0.50440848,-0.11712605,-0.347674391,-0.034300498,0.021853539,0.936731399,0.152340386,-0.610646985,14.39477696,-0.168285842,3.304002139,0.39415101,10.95642958,1.734460014,2.071224144,1363.857718,1413.82038,1337.162937,1351.256714,-2513.134273,-3362.149628,-2709.31073,-1226.900045,159.7969909
11.585,3.946685713,-3.425276445,1.080847653,-0.541949137,-0.509096455,-0.11411612,-0.348342167,-0.034936906,0.021979823,0.936456951,0.168579815,-0.614940443,14.32893325,-0.17073956,3.326257057,0.397843402,10.95598051,1.742753165,2.072251103,1357.98443,1406.326298,1330.856311,1348.603834,-2348.173748,-2933.888106,-2462.39033,-989.3806197,159.8192122
11.5875,3.014694328,-3.7447188,1.069895163,-0.529722923,-0.518121772,-0.112551199,-0.348994101,-0.035604304,0.022101219,0.936186333,0.182654377,-0.618876198,14.26201518,-0.17318622,3.348437904,0.401386063,10.95553148,1.751104523,2.07328767,1352.116849,1399.150939,1324.850985,1346.309811,-2304.527563,-2821.224632,-2255.428161,-852.5264394,159.8411524
11.59,2.143742406,-3.969332987,1.068079607,-0.531641091,-0.530780793,-0.111760619,-0.349623152,-0.036298011,0.022217616,0.935922396,0.19423695,-0.622287274,14.19414952,-0.175632569,3.370541927,0.404777045,10.95508046,1.759514021,2.074332693,1346.461792,1392.220175,1319.57917,1344.341202,-2172.306417,-2716.119807,-1832.790222,-713.5198763,159.8628467
11.5925,1.723181429,-3.982145346,1.079312609,-0.543017943,-0.545287845,-0.110401522,-0.350226778,-0.037000951,0.022336943,0.935666601,0.202792238,-0.625137236,14.1254855,-0.178085837,3.392566423,0.408014666,10.95462257,1.767980013,2.075384486,1341.255317,1385.57034,1315.687034,1342.742212,-2154.039701,-2851.454284,-1322.369784,-637.18739,159.88423
11.595,1.976099669,-3.712331466,1.081480387,-0.553316323,-0.56119091,-0.107203693,-0.350797162,-0.037694361,0.022466047,0.935422479,0.207793808,-0.627236972,14.05619954,-0.180553609,3.414508785,0.411097553,10.95415188,1.776500367,2.076441573,1335.691593,1377.962904,1312.967322,1341.155265,-1912.552702,-2708.823659,-673.4216946,-547.5276844,159.9095136
11.5975,2.784986909,-3.284592757,1.046545833,-0.55454119,-0.571605885,-0.103691576,-0.351326965,-0.038370616,0.022605742,0.935193077,0.209021566,-0.628433189,13.98647602,-0.183043693,3.436366524,0.41402469,10.95366553,1.785073684,2.077503505,1331.692553,1372.026222,1312.319926,1340.004573,-1461.723949,-2256.720503,13.04129054,-452.6222483,159.9302604
11.6,4.007561721,-2.738434261,0.949806819,-0.546927931,-0.57833439,-0.100109484,-0.351819266,-0.039037329,0.022755047,0.934976952,0.206695766,-0.628904097,13.9164846,-0.185563995,3.458137291,0.416795437,10.95316478,1.793697606,2.078569961,1328.382974,1366.679301,1313.032528,1338.892154,-1300.422513,-2166.231731,493.8325581,-510.5387603,159.9506657
11.6025,5.63254507,-2.069538036,0.757801215,-0.529089026,-0.583046197,-0.096373945,-0.352277749,-0.039707338,0.0229091,0.934772307,0.20118609,-0.62885283,13.84639254,-0.188122393,3.479818892,0.419409558,10.9526531,1.802371345,2.079641294,1325.190441,1361.195063,1314.789088,1337.45188,-1046.867273,-1817.176145,676.9417146,-563.8597505,159.9747556
11.605,6.904529472,-1.574431841,0.547453082,-0.50930444,-0.585348162,-0.094167484,-0.352711712,-0.040403624,0.02305518,0.934574978,0.193100493,-0.628661416,13.77635238,-0.190726622,3.501409296,0.421867233,10.95213666,1.811094818,2.080716908,1323.148637,1357.593421,1316.417237,1336.072855,-694.699598,-1198.046723,551.1718951,-606.8143147,159.9945027
11.6075,7.90783084,-1.197721227,0.314451813,-0.487032222,-0.587037007,-0.093342315,-0.353132766,-0.041139876,0.02318469,0.934380215,0.182872494,-0.628765164,13.70650988,-0.193384152,3.522906634,0.42416907,10.95162041,1.81986822,2.081796908,1321.716943,1355.20483,1317.544948,1334.417808,-472.7048766,-730.3049718,292.264364,-719.7522558,160.0139172
11.61,8.611392619,-0.935268359,0.088107607,-0.464010009,-0.588531583,-0.093666422,-0.353540823,-0.041919625,0.023290793,0.934188058,0.170725572,-0.62924165,13.63702104,-0.196102083,3.5443092,0.426316097,10.95110553,1.828692395,2.082881938,1320.785113,1353.941896,1317.878558,1332.474094,-248.1439471,-217.0147611,-100.0838888,-859.9797958,160.0330648
11.6125,8.920020945,-0.809315441,-0.10731361,-0.441293526,-0.589823989,-0.094943108,-0.353928443,-0.042748605,0.023362108,0.93400134,0.156941026,-0.629959029,13.56804025,-0.198887044,3.56561545,0.428309755,10.95059345,1.837568423,2.083972018,1320.476223,1354.119756,1317.044528,1330.117909,16.82299531,414.0399467,-620.0581765,-1143.378494,160.0519051
11.615,8.836938209,-0.796510629,-0.29750602,-0.415437312,-0.591255396,-0.096689757,-0.354288454,-0.043625209,0.023391996,0.933823011,0.141682563,-0.63078403,13.49971129,-0.201745093,3.586823995,0.430151872,10.9500842,1.846495915,2.085066937,1320.869228,1356.012095,1314.778267,1326.757201,275.6303904,958.6908533,-987.4245827,-1320.774294,160.0741812
11.6175,8.405064839,-0.876398256,-0.428613333,-0.395148843,-0.592452281,-0.09787702,-0.354617331,-0.044545775,0.023377298,0.933654659,0.125117785,-0.631681088,13.43216097,-0.204681645,3.607933602,0.431844643,10.94957776,1.855475896,2.086166873,1321.854375,1358.91321,1312.107406,1323.514038,526.5387706,1389.896471,-1142.745528,-1371.446399,160.0924862
11.62,7.612424609,-1.00822392,-0.553701064,-0.375248025,-0.594018033,-0.098677886,-0.354921958,-0.045497522,0.023330086,0.933493989,0.107327411,-0.63288172,13.36549183,-0.207701398,3.628943198,0.433390596,10.94907086,1.864507855,2.08727058,1323.501922,1362.961578,1309.06454,1319.899969,854.1210503,1948.380013,-1331.79891,-1629.831459,160.1105438
11.6225,6.266075149,-1.16216582,-0.7221468,-0.351663083,-0.597526548,-0.099405362,-0.355217863,-0.046454009,0.023279382,0.933335658,0.08819934,-0.634813571,13.29978651,-0.210808297,3.649851877,0.434792556,10.94855523,1.873590441,2.088375685,1326.12498,1368.65511,1305.448411,1315.36488,1034.897401,2122.567506,-1275.102027,-1648.903036,160.1319499
11.625,4.857483125,-1.237380823,-0.886816882,-0.334319213,-0.602203002,-0.100114966,-0.355529151,-0.047390702,0.02325637,0.933170931,0.067696107,-0.638113939,13.23510622,-0.214005506,3.670658917,0.436053604,10.94802297,1.882722343,2.089480152,1328.676409,1373.574415,1302.68903,1311.655454,1032.6679,1851.374849,-1029.366949,-1408.887312,160.1495848
11.6275,3.260142045,-1.216785747,-1.069272292,-0.322475252,-0.607923377,-0.101371559,-0.355859262,-0.048293178,0.02327541,0.932998846,0.045901292,-0.642825995,13.17153305,-0.217295408,3.691363798,0.437177031,10.94747038,1.891905554,2.090584666,1331.28832,1377.911984,1300.301576,1308.320444,992.2729794,1521.272074,-896.1002178,-1233.471681,160.1670255
11.63,1.627401508,-1.114929855,-1.24606927,-0.315960659,-0.61345482,-0.103394072,-0.356194704,-0.049161037,0.023331556,0.932824661,0.023084758,-0.648528679,13.10916814,-0.220679618,3.711966227,0.438166305,10.94689866,1.901144112,2.091691469,1333.637773,1381.180776,1298.208529,1305.488096,791.0692581,934.2995121,-781.0762126,-983.5745843,160.1843167
11.6325,0.119638979,-0.955137098,-1.377185942,-0.315558692,-0.617569673,-0.106527158,-0.356521949,-0.050005798,0.023408333,0.932653328,-0.000300795,-0.654814485,13.04811231,-0.224159022,3.732466173,0.439025032,10.9463124,1.910441941,2.092803789,1335.243666,1382.583482,1296.396195,1303.402571,428.3054253,103.4313437,-751.5130553,-736.3941095,160.2014402
11.635,-1.341686679,-0.790001264,-1.424805971,-0.320977544,-0.619765466,-0.111289872,-0.356829454,-0.050835697,0.023492686,0.932489146,-0.023885094,-0.661315381,12.98846716,-0.227733826,3.752863898,0.439756937,10.94571492,1.919800505,2.09392324,1335.779301,1381.697932,1294.450963,1301.806125,-97.53583983,-754.8426539,-680.440468,-445.0264274,160.221809
11.6375,-2.153276613,-0.752918297,-1.335538245,-0.32893102,-0.619207194,-0.115626374,-0.357117258,-0.051656639,0.02358166,0.932331853,-0.047306767,-0.667959698,12.93032164,-0.231403621,3.773159999,0.440365828,10.94510585,1.929217768,2.095047882,1334.755987,1378.809269,1292.993993,1301.177439,-753.5630753,-1542.905924,-538.2128918,-129.0188923,160.2386421
11.64,-2.462749711,-0.890801216,-1.08140412,-0.338396294,-0.617339642,-0.119920496,-0.357399546,-0.052476268,0.023679538,0.932175491,-0.070138344,-0.675042841,12.87374715,-0.23516746,3.79335544,0.440855574,10.94448357,1.938689781,2.096174525,1332.011485,1373.983403,1291.759899,1301.161031,-1377.607142,-2176.828208,-436.4895389,77.63746159,160.255337
11.6425,-2.344398951,-1.187764282,-0.682433495,-0.347482708,-0.616053403,-0.123819486,-0.357690176,-0.053298112,0.023793299,0.932014384,-0.092064856,-0.682822908,12.81881563,-0.239023931,3.813451583,0.441230076,10.94384655,1.948212659,2.097299574,1327.867951,1367.925128,1290.811545,1301.565626,-1942.479855,-2616.304475,-281.4844883,249.6103493,160.2719212
11.645,-1.75074428,-1.635533539,-0.123198377,-0.354299237,-0.617316793,-0.126485745,-0.357996355,-0.054128899,0.02392386,0.931845358,-0.112770015,-0.691373563,12.76560559,-0.242971231,3.8334502,0.441493248,10.94319618,1.957784253,2.098421733,1322.299086,1360.90188,1290.352476,1302.409082,-2665.628004,-3186.329567,-67.36259655,465.1779347,160.2883741
11.6475,-0.590238668,-2.238149975,0.680177758,-0.358295984,-0.62315859,-0.127438733,-0.358331797,-0.054972338,0.024075111,0.931662832,-0.132016866,-0.700931531,12.71417906,-0.247007238,3.853353486,0.441648993,10.94253352,1.967401814,2.099539598,1314.539811,1351.99348,1290.474732,1303.891516,-2923.274475,-3270.728156,148.5502851,619.7413814,160.3079651
11.65,0.659860641,-2.701502626,1.398458392,-0.357599601,-0.63169483,-0.125882821,-0.358698085,-0.055829492,0.024244806,0.931466182,-0.149701964,-0.711407535,12.66460457,-0.251129574,3.873164043,0.441701187,10.94185939,1.977063572,2.100652984,1307.682714,1344.54824,1291.095228,1305.507789,-2706.397529,-2919.585949,310.5454214,718.5173625,160.3241609
11.6525,2.099596102,-3.038499333,2.074798769,-0.352643041,-0.642609699,-0.121298811,-0.359081378,-0.056702179,0.024423491,0.931260854,-0.165774883,-0.722317184,12.6169603,-0.255335657,3.892884859,0.441653664,10.94117685,1.986770719,2.101764597,1301.007824,1337.39555,1292.027459,1307.484103,-2788.485714,-3040.762902,394.1923042,930.8780041,160.3402153
11.655,3.950881466,-3.268361174,2.725341529,-0.342917448,-0.655611024,-0.11267744,-0.359466451,-0.057587937,0.024605879,0.931052979,-0.180269438,-0.733147669,12.57131094,-0.25962274,3.91251927,0.441510196,10.94048844,1.996524745,2.102877026,1293.740285,1329.344425,1293.066189,1310.162179,-2492.035711,-2851.968286,294.2628232,1005.68086,160.3593066
11.6575,5.544546739,-3.345890404,3.063725707,-0.33243115,-0.664755833,-0.103738299,-0.359842606,-0.058482954,0.02479138,0.930846919,-0.193226386,-0.743522331,12.52769688,-0.263987953,3.932070902,0.441274482,10.93979523,2.006326754,2.103991264,1288.547645,1323.135709,1293.498773,1312.512507,-1870.116532,-2373.980633,5.744575041,920.169554,160.3750624
11.66,7.131011278,-3.380906257,3.137082937,-0.318630292,-0.672036152,-0.094022914,-0.360204151,-0.059382231,0.024985728,0.930645022,-0.204674848,-0.75321095,12.4861317,-0.268428317,3.951543612,0.44095014,10.93909615,2.016176134,2.105106958,1284.389702,1317.474522,1293.094912,1314.763027,-1486.310303,-2167.238871,-338.23067,844.456013,160.3906493
11.6625,8.653029955,-3.44169748,2.977704112,-0.301055815,-0.678374033,-0.084397492,-0.360542173,-0.060280978,0.025195748,0.930450858,-0.214636349,-0.761921085,12.44661362,-0.272940765,3.970941406,0.440540696,10.93838884,2.026071855,2.106223332,1281.116093,1312.299514,1291.80762,1316.734787,-1098.408266,-1935.613303,-739.3672285,671.4633259,160.4060904
11.665,10.0059723,-3.587247881,2.556791508,-0.278660986,-0.684092077,-0.07578495,-0.360840585,-0.061181212,0.025418069,0.930270615,-0.223051594,-0.769225119,12.40913126,-0.277522152,3.990268365,0.440049589,10.93767228,2.036012221,2.107340487,1278.897661,1307.796455,1289.398076,1318.120344,-740.2591322,-1790.779655,-1287.249759,412.1290038,160.4213495
11.6675,11.30433407,-3.882857553,1.815656631,-0.247057935,-0.691424253,-0.067830059,-0.361086139,-0.062083682,0.025650485,0.930109441,-0.229888904,-0.77479904,12.3736464,-0.282169258,4.009528549,0.43948017,10.93694419,2.045995916,2.108458511,1277.414798,1303.345616,1285.371371,1318.795432,-357.9020408,-1440.691282,-1612.779667,44.46734181,160.4394441
11.67,12.02502596,-4.206918004,1.073632944,-0.217437782,-0.699022813,-0.063860158,-0.361265545,-0.062986126,0.025890405,0.929972707,-0.235197023,-0.77834415,12.34009737,-0.286878797,4.028725916,0.43883571,10.93620265,2.056024098,2.109577477,1277.108151,1300.592999,1281.334178,1318.34268,47.83398766,-861.4115113,-1671.800541,-421.6756844,160.4543391
11.6725,12.28407991,-4.542789082,0.30330128,-0.185112294,-0.709554591,-0.063273308,-0.361381241,-0.063893108,0.026133401,0.929859265,-0.238886949,-0.780016441,12.30837585,-0.291647421,4.047864227,0.438119396,10.93544776,2.066097553,2.110696167,1277.653968,1299.038558,1277.012369,1316.687053,397.4143287,-365.4446261,-1863.983262,-1010.198088,160.4690402
11.675,12.01268588,-4.858147043,-0.543432478,-0.145732955,-0.725371291,-0.066064336,-0.361446588,-0.064808873,0.026378256,0.929763649,-0.240865352,-0.780272596,12.27833473,-0.296471735,4.066946968,0.437334338,10.93467995,2.076214778,2.111813846,1279.095222,1298.765776,1272.014261,1313.29169,624.9091901,184.4520484,-1737.088733,-1457.475114,160.4864551
11.6775,11.3141254,-4.988014895,-1.125632127,-0.11457808,-0.739663891,-0.070305442,-0.361471827,-0.065733943,0.026623622,0.929681859,-0.241139386,-0.779495973,12.24981214,-0.301348311,4.085977269,0.436483567,10.93389873,2.086376228,2.112929693,1280.778514,1299.960819,1268.326925,1309.399678,735.6371531,773.1122715,-1326.36153,-1723.360578,160.5007783
11.68,10.19736705,-4.946559072,-1.546867588,-0.086913565,-0.753705656,-0.075498994,-0.36146941,-0.066674463,0.026866928,0.92960867,-0.23960771,-0.778148113,12.2226286,-0.306273708,4.104957841,0.435570031,10.93310443,2.096582799,2.114042394,1282.773408,1302.631337,1265.382454,1304.674887,831.267046,1289.503411,-1042.632258,-1974.573773,160.5149061
11.6825,8.820613582,-4.767993768,-1.837377668,-0.063120097,-0.766759589,-0.080732264,-0.361450425,-0.067637432,0.027106268,0.929539313,-0.236160882,-0.77665942,12.19659479,-0.3112445,4.123890925,0.434596592,10.93229833,2.106835116,2.115151651,1284.934849,1306.408336,1263.113764,1299.526809,898.8679733,1717.348006,-758.1097583,-2095.802743,160.5288739
11.685,7.25648431,-4.457191072,-1.997503823,-0.04477669,-0.778071138,-0.085255278,-0.361419387,-0.068625349,0.027339513,0.929471902,-0.230814051,-0.775282312,12.17152126,-0.31625731,4.14277825,0.433566013,10.93148075,2.11713508,2.116257318,1287.267748,1311.218077,1261.591905,1294.195873,1074.239774,2242.475826,-538.3092692,-2319.332718,160.5426529
11.6875,5.323781398,-3.989010067,-2.083069557,-0.029067819,-0.789577004,-0.089873266,-0.361375728,-0.069631682,0.027567254,0.929407104,-0.223791492,-0.774113951,12.14721851,-0.321308845,4.161621013,0.432480944,10.93065023,2.127485371,2.117359789,1290.306048,1317.620715,1260.422217,1287.930145,1161.808076,2356.226507,-356.0735194,-2242.675854,160.5589762
11.69,3.763982239,-3.559606576,-2.089202996,-0.020269688,-0.797785099,-0.093577732,-0.361312336,-0.070647749,0.02778871,0.929348331,-0.215396072,-0.773072518,12.12350516,-0.326395942,4.180419869,0.431343895,10.92980427,2.137889132,2.118459128,1293.076788,1322.99921,1259.811537,1282.982494,1154.10305,2044.00959,-206.4771709,-1901.985279,160.5724092
11.6925,2.336347882,-3.124843147,-2.035471394,-0.014537097,-0.805097169,-0.097817577,-0.361232566,-0.071673262,0.028000649,0.92929436,-0.205775106,-0.772352358,12.10018636,-0.331515617,4.199174937,0.430157213,10.92894164,2.148345742,2.119553483,1296.076563,1327.840763,1259.389831,1278.420219,1215.446933,1768.560263,-153.8522574,-1754.529607,160.585675
11.695,1.053599799,-2.702037577,-1.924505817,-0.010548082,-0.811824333,-0.10268572,-0.361151865,-0.072708064,0.028205161,0.929239107,-0.1950565,-0.77243214,12.07705339,-0.336665108,4.21788582,0.428923049,10.92806232,2.158850606,2.120641496,1299.154023,1331.842011,1259.042276,1274.209846,1193.641137,1318.93082,-122.8299058,-1592.039729,160.59881
11.6975,-0.023846166,-2.306217844,-1.730640728,-0.008384806,-0.818016087,-0.107976871,-0.361082401,-0.07374865,0.028406873,0.929177954,-0.183446821,-0.773673659,12.05391112,-0.341841932,4.236551639,0.427643334,10.92716627,2.169401454,2.12172303,1302.044769,1334.435417,1258.775682,1270.46002,1128.318625,741.4646328,-82.42726595,-1523.485639,160.6117972
11.7,-1.029291406,-1.878812016,-1.395349348,-0.008597544,-0.824710356,-0.113823955,-0.361031919,-0.074790636,0.028609499,0.929108112,-0.171196822,-0.77630226,12.03058301,-0.347043932,4.255171072,0.426319752,10.92625376,2.179997417,2.122798458,1304.795616,1335.549334,1258.63014,1266.592418,809.3752519,46.16184882,-7.126751078,-1286.47042,160.6272229
11.7025,-1.574710473,-1.580268691,-1.040032171,-0.011527548,-0.829117716,-0.11751773,-0.360999252,-0.075829286,0.028815205,0.929030343,-0.15859039,-0.780294806,12.00692179,-0.352269322,4.273742411,0.424953716,10.92532519,2.190639807,2.12386861,1306.091645,1334.666226,1258.740048,1264.027668,229.8455464,-727.6881807,109.4264205,-845.2555994,160.6399533
11.705,-1.741806918,-1.370040942,-0.633150297,-0.016715022,-0.831894671,-0.119682792,-0.360979876,-0.076864299,0.029024632,0.928946414,-0.145831016,-0.785531853,11.98280411,-0.357516733,4.292263613,0.423546358,10.9243816,2.20133055,2.124933615,1305.944844,1331.910893,1259.177272,1262.36614,-455.1432238,-1591.671787,278.4901714,-465.646382,160.6525632
11.7075,-1.428148374,-1.247735638,-0.126862919,-0.023758565,-0.834123922,-0.120644025,-0.360963752,-0.077891972,0.029239724,0.928860487,-0.13319724,-0.791727667,11.95813554,-0.362785234,4.310732367,0.422098516,10.92342357,2.212071309,2.12599516,1303.815929,1326.707867,1260.132499,1261.699436,-1113.478553,-2153.169175,421.322766,10.91956538,160.6675644
11.71,-0.704210417,-1.260288548,0.279103782,-0.029045063,-0.83596708,-0.120226545,-0.360936556,-0.078907753,0.029463305,0.928778428,-0.120981525,-0.798470621,11.93285166,-0.368074364,4.329146154,0.420610737,10.92245166,2.22286301,2.127055027,1300.377451,1321.145047,1261.283886,1262.420738,-1685.558325,-2371.530872,521.4505494,571.9053915,160.6799619
11.7125,0.501811674,-1.378531929,0.63502899,-0.03235053,-0.838435054,-0.118655293,-0.360899445,-0.079918492,0.029695913,0.92869918,-0.109229503,-0.805754924,11.90688631,-0.373384137,4.347502312,0.419083283,10.92146753,2.233700993,2.128112101,1295.388137,1314.850213,1262.739752,1264.558963,-2196.40422,-2554.309512,613.2799304,1079.441686,160.6922572
11.715,2.073195338,-1.562603496,0.928868327,-0.032815944,-0.841637854,-0.116201546,-0.360854443,-0.080926834,0.029938199,0.928621699,-0.098073752,-0.813580519,11.88019465,-0.378715037,4.365798095,0.417516144,10.92047159,2.244579927,2.129164451,1289.39543,1308.3735,1264.350285,1267.817946,-2544.234402,-2544.028439,648.3164774,1526.0979,160.7044706
11.7175,3.994016499,-1.792212792,1.131017078,-0.02813861,-0.846010276,-0.112917826,-0.360796111,-0.081936186,0.03018953,0.928547816,-0.087623339,-0.821755934,11.8527692,-0.384068008,4.384030731,0.415909075,10.91946419,2.255498766,2.130212227,1282.666965,1302.130071,1265.981334,1272.189453,-2991.211592,-2605.410313,676.3262954,2076.363897,160.7165887
11.72,6.526255352,-2.078177086,1.259877486,-0.014628351,-0.85263437,-0.108456297,-0.360709466,-0.082944151,0.030450603,0.928483529,-0.078089573,-0.829836761,11.82464381,-0.389444421,4.402197475,0.414261628,10.9184442,2.266460451,2.131257048,1274.439372,1295.346448,1267.731917,1278.199766,-2939.455082,-2327.898163,578.3681845,2230.376419,160.7310251
11.7225,8.668023516,-2.303334884,1.278450315,0.003862486,-0.858800138,-0.104833158,-0.360569896,-0.08394845,0.030718823,0.928438661,-0.069678202,-0.837148335,11.79589368,-0.394846038,4.420295661,0.412573196,10.91741219,2.277471293,2.132302048,1267.96969,1290.49058,1268.873175,1283.341335,-2396.082389,-1749.595269,366.5930148,1949.462417,160.7429719
11.725,10.64819971,-2.504576518,1.22390475,0.029330826,-0.864950502,-0.101837128,-0.360364288,-0.084953681,0.030991212,0.928417945,-0.06241482,-0.84332829,11.76659569,-0.400274961,4.438322735,0.410843069,10.91636924,2.288536162,2.133348195,1262.45896,1286.598472,1269.564882,1287.947078,-2102.357796,-1478.019212,184.5319686,1754.833587,160.7548376
11.7275,12.64068518,-2.720486239,1.10200096,0.066381476,-0.872084853,-0.098897409,-0.360087419,-0.085959357,0.031267808,0.928423413,-0.056390491,-0.848210489,11.73683059,-0.40573357,4.45627629,0.409070483,10.91531511,2.299655783,2.134395915,1257.457901,1283.100484,1269.795835,1292.115503,-1519.691551,-1089.557749,-24.337085,1218.493118,160.7689902
11.73,13.87365252,-2.880949323,0.971251029,0.101221525,-0.878064762,-0.0967394,-0.359738831,-0.086961539,0.03155072,0.928455475,-0.051729351,-0.851751645,11.70668433,-0.411224464,4.474154087,0.407254675,10.9142488,2.310828054,2.135445456,1254.860502,1281.150683,1269.443197,1294.039543,-700.2958791,-597.1246577,-270.0264612,392.9589457,160.7807183
11.7325,14.58659415,-3.01460647,0.825526144,0.13850853,-0.884634345,-0.094703067,-0.359332355,-0.087969566,0.031840651,0.928507795,-0.048236789,-0.854302064,11.67622479,-0.416750388,4.491954069,0.40539494,10.91317171,2.322046891,2.136495679,1253.956421,1280.11486,1268.445703,1294.080298,-104.5406635,-288.6818981,-523.2262254,-299.8703089,160.7923856
11.735,14.85104802,-3.113129855,0.675730636,0.176623138,-0.891895699,-0.092856651,-0.358888442,-0.088989909,0.032139474,0.9285717,-0.045748372,-0.856381045,11.64551007,-0.422314164,4.509674352,0.403490677,10.91208451,2.33330492,2.137544148,1254.337799,1279.707274,1266.827065,1292.540192,397.4145802,-57.08142793,-818.6659241,-959.7744115,160.8040087
11.7375,14.59923094,-3.149287199,0.530420555,0.214374684,-0.900010786,-0.091458727,-0.358428198,-0.090029504,0.032448058,0.928638252,-0.044071459,-0.858536895,11.61459393,-0.427918623,4.527313218,0.401541429,10.91098787,2.3445957,2.138587538,1255.943494,1279.829453,1264.352373,1289.281426,874.3875987,108.8429825,-1298.894373,-1739.037122,160.8155861
11.74,13.78317834,-3.100916917,0.373262538,0.257538678,-0.91041942,-0.090396406,-0.357963628,-0.091095036,0.032764533,0.928702157,-0.043015554,-0.861107341,11.58353879,-0.433566542,4.544869086,0.399546917,10.90988224,2.355917294,2.139623288,1258.709737,1280.251489,1260.332594,1283.845006,1062.867958,155.420807,-1636.367088,-2158.464514,160.8294355
11.7425,12.76626902,-2.982599781,0.263782629,0.290476975,-0.918932686,-0.089938963,-0.357500406,-0.092191944,0.033086807,0.928760699,-0.042402338,-0.864283385,11.55240685,-0.439260586,4.562340479,0.397507061,10.90876686,2.367272901,2.140649207,1261.257834,1280.606557,1256.170537,1278.489103,972.9794807,107.349154,-1787.031665,-2197.551524,160.840947
11.745,11.53262745,-2.801753242,0.180762241,0.319193554,-0.926289461,-0.089754686,-0.357022095,-0.093311814,0.033411198,0.928821074,-0.042357901,-0.86770398,11.52128692,-0.445003262,4.579725986,0.39542199,10.907639,2.378667833,2.141665481,1263.574635,1280.788234,1251.397435,1272.857249,837.45622,38.17529833,-1954.408969,-2217.65619,160.8524349
11.7475,10.22371484,-2.593876628,0.118653551,0.343912597,-0.932501459,-0.089667998,-0.356513177,-0.09444241,0.033734012,0.928890509,-0.043084424,-0.871037656,11.49025031,-0.450796882,4.597024216,0.393292036,10.90649523,2.390105856,2.142672501,1265.445115,1280.797434,1246.398493,1267.400822,614.1104755,-18.48500412,-1969.424796,-2066.754329,160.8639081
11.75,8.936006367,-2.384736738,0.075816588,0.36371101,-0.937658221,-0.089572536,-0.35596441,-0.095573239,0.0340523,0.928973646,-0.044737087,-0.874116626,11.45934078,-0.456643545,4.61423376,0.391117727,10.90533157,2.401588811,2.143669761,1266.645187,1280.695809,1241.550311,1262.523477,383.5626052,-20.86776518,-1986.920557,-1963.799398,160.8753688
11.7525,7.512972781,-2.161545677,0.035211722,0.383389911,-0.943261062,-0.089340208,-0.355372567,-0.096694828,0.034370984,0.929072447,-0.0473989,-0.876908633,11.42857753,-0.462545122,4.631353157,0.38889976,10.90414498,2.413117618,2.144658622,1267.362928,1280.693095,1236.46389,1257.581825,175.5758235,61.58700629,-1675.385212,-1661.559554,160.8891133
11.755,6.454797514,-2.008840779,0.001528477,0.398108407,-0.947896236,-0.089022883,-0.354741242,-0.097800663,0.034696393,0.929185928,-0.051085701,-0.879546281,11.39795461,-0.468503264,4.648380865,0.386638977,10.90293438,2.42469152,2.145640586,1267.523066,1281.003744,1233.173385,1254.215679,28.07743593,231.3726117,-1072.158379,-1229.181343,160.9005638
11.7575,5.513787143,-1.89295744,-0.039649398,0.412100724,-0.952615774,-0.088638742,-0.354091386,-0.098900158,0.035032635,0.929304886,-0.055489347,-0.882605409,11.36742316,-0.474519411,4.665315244,0.384336334,10.90170263,2.436307039,2.146616301,1267.503315,1281.849958,1231.103098,1251.435918,16.49210004,514.9840906,-628.2836231,-1160.661068,160.9120144
11.76,4.477015856,-1.795589059,-0.099011782,0.427407979,-0.957782591,-0.088345027,-0.353450769,-0.100006441,0.035385937,0.929417063,-0.06022151,-0.886812303,11.33691592,-0.48059481,4.682154551,0.381992873,10.9004533,2.447961313,2.147585965,1267.605527,1283.578665,1230.031967,1248.412374,100.2507834,738.894943,-191.2417895,-1113.64505,160.9257585
11.7625,3.663052666,-1.748282375,-0.151599556,0.438099302,-0.961456204,-0.088490064,-0.352830425,-0.101129044,0.035756617,0.929517184,-0.06502318,-0.892476654,11.30639436,-0.486730544,4.698896944,0.379609686,10.89918895,2.459654474,2.148550403,1268.004569,1285.544433,1230.146889,1245.867693,257.6501464,846.3105913,185.5327539,-1078.393449,160.9372161
11.765,2.883436534,-1.729408637,-0.196406887,0.446388723,-0.965051283,-0.089026007,-0.352218577,-0.102273508,0.036134586,0.929609466,-0.069797192,-0.899359335,11.27586339,-0.492927552,4.715540497,0.377187894,10.89791112,2.471391076,2.149510533,1268.893777,1287.810218,1230.959631,1243.020407,443.6003051,901.102355,378.2214872,-1210.77467,160.9486788
11.7675,2.128544119,-1.72191064,-0.226091809,0.453054957,-0.969188025,-0.089730089,-0.351609057,-0.1034414,0.036512058,0.929696353,-0.074527398,-0.907330142,11.24532272,-0.499186658,4.732083234,0.374728624,10.89662059,2.48317502,2.150466173,1270.222571,1290.049945,1232.037996,1239.81382,619.1324426,813.8642779,421.1482718,-1362.189826,160.9601456
11.77,1.408227599,-1.709366326,-0.229417723,0.458321419,-0.974105292,-0.090540982,-0.351011623,-0.104628622,0.036892125,0.929774462,-0.079261221,-0.916587155,11.2147509,-0.505508594,4.748523165,0.372232989,10.89531619,2.495004659,2.15141634,1271.989439,1291.879539,1233.065372,1236.209457,821.2694279,619.7989797,362.3927339,-1623.632418,160.9716162
11.7725,0.607829853,-1.67338978,-0.19712397,0.463007648,-0.980209952,-0.091545093,-0.350445307,-0.105830406,0.037281809,0.929836828,-0.084042375,-0.927514925,11.18411827,-0.511894023,4.764858335,0.369702063,10.89399669,2.50687546,2.152359985,1274.328918,1293.148939,1233.84996,1231.695658,832.8798285,261.7337943,177.5298583,-1620.380412,160.9853823
11.775,0.030803608,-1.628250064,-0.139909553,0.465214792,-0.984951867,-0.092270282,-0.349921234,-0.107044682,0.037683533,0.929879361,-0.088886023,-0.940299264,11.15342039,-0.518343551,4.781086875,0.367136865,10.89266127,2.518783312,2.153295855,1276.153839,1293.188208,1233.953021,1228.107555,618.4010123,-226.0291201,-83.92954426,-1304.725311,160.9968522
11.7775,-0.384105572,-1.585683161,-0.056476278,0.465420157,-0.989052964,-0.092561709,-0.349428375,-0.108267142,0.038092598,0.929906845,-0.093895379,-0.95459237,11.12270778,-0.524857742,4.797207059,0.364538341,10.89130919,2.530728672,2.154223899,1277.420923,1292.018794,1233.430312,1225.172031,331.6420834,-791.6212334,-346.005426,-1036.321807,161.0083154
11.78,-0.592259807,-1.570105708,0.06398582,0.463325101,-0.993417703,-0.092287144,-0.348938205,-0.109493731,0.038500167,0.92993078,-0.099185769,-0.969629943,11.09207996,-0.531437126,4.813217365,0.361907358,10.8899395,2.542716046,2.15514526,1277.812049,1289.230102,1232.222994,1222.925946,-100.7165297,-1231.34265,-493.778238,-554.0473698,161.0220567
11.7825,-0.448091404,-1.611379174,0.175315409,0.460108197,-0.996806996,-0.091805946,-0.348424703,-0.110725045,0.038895991,0.929961236,-0.104773927,-0.984710665,11.06164558,-0.538082196,4.829116532,0.359244696,10.88855236,2.554750073,2.156059905,1276.91734,1285.862081,1230.961421,1222.401794,-647.9897254,-1521.608012,-483.558761,100.7417005,161.0334902
11.785,0.096079706,-1.733689106,0.29460413,0.45678312,-1.000083031,-0.09129286,-0.347869378,-0.111961738,0.039275416,0.930005218,-0.110635906,-0.999290869,11.03151064,-0.544793413,4.844903614,0.356551055,10.88714865,2.56683449,2.156967807,1274.5721,1281.622062,1229.805201,1223.429655,-1179.750292,-1802.188617,-387.378302,659.4058164,161.0448977
11.7875,0.994671175,-1.934643434,0.419097835,0.454921484,-1.003742262,-0.090741187,-0.347264429,-0.113198348,0.039645422,0.930065944,-0.116805935,-1.013032594,11.00176785,-0.551571198,4.860578019,0.353827049,10.88572825,2.578969041,2.157870212,1271.018589,1276.851138,1229.02453,1225.698823,-1683.655346,-1987.375719,-170.8346206,1159.552577,161.0562772
11.79,2.302842858,-2.233399136,0.545504554,0.456667374,-1.00841685,-0.089965314,-0.346605702,-0.114429177,0.040013158,0.930145276,-0.123316871,-1.025678687,10.9725027,-0.558415922,4.876139544,0.351073207,10.88429121,2.591150446,2.158768607,1266.153824,1271.685183,1228.951027,1229.227418,-2375.99188,-2303.153371,148.6870159,1748.986758,161.0676141
11.7925,4.271852473,-2.699033279,0.686890121,0.464564217,-1.015225822,-0.088441513,-0.345894698,-0.115653701,0.040384083,0.930242396,-0.13009556,-1.037118942,10.94378177,-0.565327897,4.891588382,0.348289969,10.88283779,2.603373693,2.159663446,1259.13863,1265.335371,1229.767965,1234.443757,-2705.431958,-2312.30605,421.1593588,1995.293622,161.0811567
11.795,6.166276624,-3.168119852,0.782654551,0.476420309,-1.021894874,-0.086455308,-0.345131143,-0.116872289,0.040763878,0.930357018,-0.137042985,-1.04721052,10.91566155,-0.572307348,4.906925112,0.345477684,10.8813679,2.615633411,2.160554842,1252.626664,1260.123653,1231.056824,1239.203886,-2661.527466,-2024.192186,562.9404499,1894.068059,161.0923808
11.7975,8.216266021,-3.707364108,0.839722531,0.493678793,-1.029716427,-0.083678625,-0.344302431,-0.118079496,0.041155874,0.930494233,-0.14419037,-1.055535936,10.88820284,-0.5793544,4.922150664,0.342636602,10.87988033,2.627926449,2.161443638,1245.830992,1255.21441,1232.582667,1243.914097,-2962.854994,-2044.761599,604.3386018,1962.249499,161.103528
11.8,10.72523519,-4.411197592,0.856543167,0.520509212,-1.040482897,-0.080003528,-0.343405493,-0.119276741,0.041559718,0.930654873,-0.151441086,-1.061942925,10.86141422,-0.586469049,4.937266262,0.339766869,10.87837404,2.640251138,2.162328563,1237.812389,1249.899845,1234.078517,1249.015133,-2855.107859,-1822.176002,405.2647914,1716.396318,161.116801
11.8025,12.75804257,-5.018648357,0.835806905,0.548013345,-1.050759039,-0.077422761,-0.342449954,-0.120469543,0.041978441,0.930834389,-0.158593738,-1.066595647,10.83523855,-0.593651134,4.952273333,0.336868507,10.87684777,2.652606734,2.163207447,1231.555453,1246.10353,1234.608991,1252.496079,-2349.53077,-1353.646443,-15.55687458,1168.735105,161.1277653
11.805,14.60689017,-5.60206814,0.802402242,0.58106929,-1.062957104,-0.075677434,-0.341461296,-0.121670816,0.042417399,0.931021303,-0.165282417,-1.070055859,10.80953946,-0.600900315,4.967173407,0.333941396,10.87530169,2.664990675,2.164077103,1226.064735,1243.131613,1234.000733,1254.858809,-2029.532176,-1030.46034,-461.2323026,719.3696131,161.1386181
11.8075,16.20823741,-6.121308759,0.778655823,0.618694833,-1.07708913,-0.074285771,-0.340456099,-0.122890813,0.042880543,0.931207803,-0.171207418,-1.072707946,10.78415115,-0.608216034,4.98196799,0.330985235,10.87373692,2.677400551,2.164935471,1221.407792,1240.951228,1232.302829,1256.092927,-1626.663155,-664.5540969,-934.6204245,184.3634247,161.1493706
11.81,17.40355803,-6.506351079,0.785471135,0.66104882,-1.09335197,-0.073154806,-0.339441834,-0.124136327,0.043367471,0.931390065,-0.176168702,-1.074764848,10.75887577,-0.615597494,4.996658423,0.327999508,10.87215476,2.689834378,2.165781087,1217.931419,1239.808842,1229.327631,1255.780626,-1229.392613,-261.3884396,-1545.974201,-520.2369329,161.1599933
11.8125,18.25840909,-6.75329505,0.840630346,0.715585371,-1.114566669,-0.072069573,-0.338415522,-0.125413211,0.043871653,0.931568496,-0.180021438,-1.076250855,10.73348662,-0.623043625,5.011245745,0.324983444,10.87055639,2.702294681,2.166612812,1215.260829,1239.644286,1224.572958,1253.491742,-722.2584917,123.3008758,-1873.383937,-1154.568488,161.1725799
11.815,18.43989068,-6.756446759,0.921390866,0.76250437,-1.132845029,-0.071075558,-0.33736554,-0.126722997,0.044384588,0.931747323,-0.182725735,-1.07702622,10.70772811,-0.63055306,5.025730549,0.321935977,10.86894255,2.714787541,2.167430637,1214.320127,1240.425347,1219.960711,1250.007784,-116.3636887,460.8269273,-1888.885833,-1686.682606,161.1829276
11.8175,18.06019746,-6.554061846,1.014825099,0.808831031,-1.150447571,-0.069318994,-0.336271351,-0.128057327,0.044901351,0.931935177,-0.18443434,-1.076754022,10.68132339,-0.638124112,5.040112851,0.318855716,10.86731249,2.727319102,2.168237796,1214.679011,1241.94842,1215.128529,1245.058329,344.2349867,688.1576954,-1906.498465,-2177.409182,161.1931208
11.82,17.2426893,-6.208939535,1.090137277,0.853375836,-1.166452869,-0.066372764,-0.335128616,-0.12941068,0.045422049,0.9321342,-0.185225394,-1.075483312,10.65392817,-0.645754759,5.054391975,0.315740909,10.86566513,2.739892013,2.169035941,1216.041302,1243.866135,1210.428219,1239.120738,760.3341503,800.5791177,-1791.454017,-2543.053229,161.2031802
11.8225,15.96639054,-5.742778461,1.10815068,0.894231279,-1.180052345,-0.062138425,-0.333955003,-0.130786866,0.04595071,0.932337113,-0.184977373,-1.073785608,10.62512985,-0.653442635,5.068566456,0.31258942,10.86400027,2.752502227,2.169824082,1218.480681,1245.951316,1206.171259,1232.343063,1281.283735,877.0491566,-1731.163151,-3080.653413,161.2130721
11.825,14.02436868,-5.107299865,1.039228241,0.937541969,-1.19406393,-0.057191759,-0.332766987,-0.132188362,0.046490294,0.932537329,-0.183615158,-1.072218095,10.59451098,-0.661185029,5.082633968,0.309398714,10.86231788,2.765144281,2.170601502,1222.44772,1248.251381,1201.772403,1223.717471,1594.214867,759.8782083,-1491.674905,-3180.376951,161.2247409
11.8275,12.16005823,-4.546277277,0.911084814,0.968767772,-1.204356638,-0.054118478,-0.331576136,-0.133614511,0.047042045,0.932730581,-0.181150613,-1.071233755,10.56167245,-0.668978901,5.096591282,0.306165852,10.86061776,2.777813759,2.171368164,1226.451756,1249.750707,1198.712885,1216.441178,1700.474144,470.4845856,-1118.388371,-2866.76369,161.2342918
11.83,10.15212554,-3.967590643,0.734463632,0.995075004,-1.213482329,-0.052305124,-0.330389027,-0.135061246,0.047606627,0.932914935,-0.177682194,-1.071170863,10.52625034,-0.676820898,5.110434258,0.302887509,10.85889916,2.79050981,2.172125158,1230.950091,1250.603804,1196.180461,1209.383652,2027.740326,200.7578238,-1029.570657,-3004.910611,161.2436571
11.8325,7.699576186,-3.24468145,0.501692948,1.020743454,-1.223277938,-0.051048597,-0.329209407,-0.136519757,0.048185827,0.933090131,-0.173414213,-1.07228727,10.48792871,-0.684707397,5.124157875,0.299560015,10.85716035,2.803232705,2.172873364,1236.590457,1250.754496,1193.565031,1201.416625,2049.402322,-94.83776401,-911.8964024,-2813.682534,161.2546743
11.835,5.708054843,-2.601755173,0.311853801,1.037015879,-1.230841544,-0.050398291,-0.328035884,-0.137977205,0.048779215,0.933258458,-0.168656298,-1.074714525,10.44646128,-0.692634557,5.137756294,0.296179413,10.85539928,2.815984728,2.173613955,1241.197103,1250.129615,1191.620979,1195.315239,1739.645986,-399.4958865,-741.9073722,-2308.504975,161.2636665
11.8375,3.875882504,-1.896882758,0.145132441,1.047878685,-1.237830642,-0.050103448,-0.326858016,-0.13942047,0.049385163,0.933425533,-0.163736798,-1.078372398,10.40169861,-0.700598381,5.151222966,0.292741534,10.85361416,2.828769659,2.174348945,1245.288687,1248.757017,1189.855495,1189.874101,1483.228992,-661.3583352,-673.8336274,-2052.518565,161.2724576
11.84,2.252187507,-1.13869949,0.007819966,1.054464262,-1.243541279,-0.050113596,-0.325654575,-0.140839961,0.049996739,0.933600539,-0.158941108,-1.082948497,10.35360673,-0.708594802,5.164550776,0.2892421,10.85180486,2.841593175,2.175081369,1248.613248,1246.822824,1188.251811,1185.052647,1067.227984,-886.8634052,-589.1259238,-1757.00906,161.2810785
11.8425,0.962306817,-0.341807979,-0.085103933,1.056752135,-1.246483081,-0.050484918,-0.324390686,-0.142221923,0.050605147,0.933798166,-0.154647691,-1.08780947,10.30228721,-0.716619765,5.177732229,0.285676845,10.84997027,2.854463589,2.175814703,1250.624827,1244.3227,1186.909865,1181.089055,505.6848977,-1194.057044,-510.666488,-1508.427101,161.2894904
11.845,-0.115930844,0.594694212,-0.138500849,1.056318206,-1.246726673,-0.051307586,-0.323049563,-0.14355986,0.051202034,0.934025672,-0.151091113,-1.092700837,10.24791523,-0.724669332,5.190759661,0.282041652,10.84811015,2.867385218,2.176549443,1251.141672,1240.852538,1185.698479,1177.510511,-154.2309368,-1322.292105,-367.9065884,-1085.470491,161.2993389
11.8475,-0.58079467,1.298895269,-0.134412111,1.054537485,-1.24471627,-0.052211466,-0.321629075,-0.144851418,0.051782501,0.934284424,-0.148410835,-1.097643348,10.19075161,-0.732739787,5.203625482,0.278332702,10.84622399,2.880358882,2.177283979,1249.853672,1237.711239,1185.070332,1175.661703,-866.8023641,-1280.378047,-168.8838896,-474.3967358,161.3073386
11.85,-0.563667675,1.846881948,-0.088013809,1.052061668,-1.240440648,-0.053049044,-0.320145007,-0.146102004,0.052347067,0.934568115,-0.146571889,-1.10299101,10.13113461,-0.740827739,5.216322427,0.274546616,10.84431289,2.893381328,2.178016266,1246.80766,1234.450648,1184.854059,1175.138527,-1697.439768,-1445.545004,-6.44323111,87.32610326,161.3151203
11.8525,0.029941899,2.237276824,-0.004914486,1.048948586,-1.232459646,-0.053306452,-0.318621663,-0.147318505,0.052899465,0.934867119,-0.145501049,-1.109212337,10.06949353,-0.74893023,5.22884382,0.270680595,10.84237747,2.906448183,2.178742868,1241.366474,1230.483514,1185.038116,1176.098333,-2235.659717,-1463.649204,131.3667401,601.3334133,161.3242036
11.855,0.993377734,2.292099669,0.066672471,1.047413562,-1.224219854,-0.05260702,-0.317079448,-0.148503622,0.053442769,0.93517385,-0.145211791,-1.116624352,10.00636439,-0.757044825,5.241183816,0.266732544,10.84041777,2.919555912,2.179461815,1235.629362,1227.132402,1185.510893,1178.145195,-2461.865772,-1360.011735,238.3361758,1029.024001,161.3315592
11.8575,2.39563504,2.047363171,0.120700071,1.049152482,-1.216267778,-0.051621955,-0.315546813,-0.149668651,0.053985392,0.935476325,-0.145527085,-1.12565487,9.942349443,-0.765169702,5.253337637,0.262701179,10.83843569,2.932698629,2.180171125,1229.057145,1223.683456,1186.229797,1181.243453,-2701.568486,-1404.091699,311.9911932,1356.869882,161.3386913
11.86,4.094470063,1.575394903,0.153998012,1.054855232,-1.209805543,-0.050827925,-0.314044143,-0.15082658,0.054534379,0.935765092,-0.146242379,-1.136515492,9.87813236,-0.773303721,5.265301766,0.258586115,10.83643306,2.945872014,2.180869307,1222.121519,1220.111944,1187.070849,1184.929544,-2784.720063,-1457.242682,341.8244307,1529.872423,161.3456373
11.8625,6.037086014,0.891732192,0.16420914,1.066132207,-1.205967954,-0.050320762,-0.312569507,-0.151987623,0.05509509,0.936038732,-0.147206655,-1.148916097,9.814490913,-0.781446478,5.27707411,0.254387925,10.83441135,2.959075026,2.181557039,1215.133544,1216.397242,1187.938919,1188.892815,-2997.338677,-1641.024328,353.2778439,1686.069661,161.3523586
11.865,8.476009189,-0.065139023,0.157660043,1.086587497,-1.204768997,-0.049966333,-0.31111469,-0.153164756,0.055672183,0.936297506,-0.148214532,-1.162423899,9.752237324,-0.789598348,5.288654112,0.250108195,10.83237223,2.97230752,2.182234895,1207.134826,1211.906822,1188.837238,1193.359892,-2813.618828,-1612.958768,279.0213156,1502.304395,161.3601647
11.8675,10.46179172,-0.890889546,0.142498975,1.109304504,-1.206448032,-0.04978801,-0.309661967,-0.154375329,0.056271236,0.936544041,-0.148967179,-1.176412622,9.692203785,-0.797760501,5.300042814,0.24574954,10.83031644,2.985570693,2.182903284,1201.06545,1208.332448,1189.334025,1196.404337,-2252.443086,-1332.313675,115.6376623,986.3608248,161.3664544
11.87,12.23621324,-1.650115225,0.121963588,1.137631841,-1.210646444,-0.049618747,-0.308196743,-0.155635542,0.056903944,0.936779726,-0.149167046,-1.190304482,9.635189445,-0.805934908,5.311242867,0.241315611,10.82824371,2.998862569,2.183561175,1195.872611,1205.245254,1189.415426,1198.291696,-1902.645418,-1104.086349,-58.0182536,513.3997001,161.372522
11.8725,13.72068592,-2.293110172,0.098323933,1.170378683,-1.216744188,-0.049393816,-0.306712001,-0.156951317,0.05757813,0.937005333,-0.148734458,-1.203677016,9.581919917,-0.814124326,5.322258476,0.236811065,10.8261522,3.012177943,2.184206298,1191.552223,1202.812017,1189.043934,1198.971336,-1491.169006,-763.6363407,-281.4319243,-50.37963552,161.3784071
11.875,14.73796391,-2.741635522,0.071136919,1.2073797,-1.224763105,-0.049075047,-0.305200486,-0.158318093,0.058294056,0.937223882,-0.147814686,-1.216125683,9.533042728,-0.822332265,5.333095297,0.232241501,10.82404023,3.025512826,2.184836979,1188.416766,1201.427072,1188.008267,1198.039798,-1078.436602,-323.7005804,-633.6111267,-782.88287,161.3840744
11.8775,15.31276355,-3.018768184,0.035628742,1.254323875,-1.235500505,-0.048654047,-0.303659274,-0.159728242,0.059040616,0.93743818,-0.146646528,-1.227391238,9.489094877,-0.83056293,5.343760269,0.227613364,10.82190794,3.038862783,2.185450307,1186.16004,1201.193514,1185.875879,1195.056922,-560.4346872,161.5863574,-940.7093546,-1378.80153,161.3906273
11.88,15.21736792,-3.033791283,0.006984474,1.293811449,-1.244436882,-0.048432309,-0.30208834,-0.161165814,0.059803375,0.937651704,-0.145629413,-1.23730263,9.450493535,-0.83882116,5.354261412,0.222933823,10.81975557,3.052222686,2.186043401,1185.614592,1202.235004,1183.30472,1191.145791,71.74023382,655.8271287,-1193.699734,-1804.867416,161.3958845
11.8825,14.53236133,-2.857832822,-0.013356991,1.33209337,-1.252460972,-0.048539905,-0.300497071,-0.16261539,0.060574058,0.937864399,-0.145126106,-1.245900255,9.417512104,-0.847112335,5.364607573,0.218210615,10.81758331,3.06558775,2.186614714,1186.518741,1204.472649,1179.90738,1186.032584,732.1150329,1208.412991,-1666.938751,-2441.902317,161.4009345
11.885,13.09516708,-2.492355965,-0.018913821,1.374915194,-1.260428159,-0.04882951,-0.298897066,-0.164069333,0.061345731,0.938074071,-0.14534296,-1.253328289,9.390289928,-0.855442291,5.374808156,0.213451875,10.81539208,3.07895734,2.187164142,1189.275167,1208.277069,1174.970026,1178.936279,1271.331553,1525.711751,-1925.662142,-2691.624653,161.4067607
11.8875,11.46992356,-2.115879328,-0.003206371,1.40670054,-1.26573811,-0.048985479,-0.297292784,-0.16552348,0.062112778,0.938280112,-0.146408813,-1.259647479,9.368855037,-0.863817208,5.384872831,0.208665957,10.81318221,3.09233535,2.187693564,1192.875399,1212.101208,1170.279069,1172.574461,1659.895138,1585.140524,-1945.561123,-2550.097951,161.4114251
11.89,9.541191796,-1.731586915,0.036363701,1.433086449,-1.269790423,-0.048951405,-0.295686516,-0.166976989,0.062871019,0.938481889,-0.148380879,-1.264932871,9.353114555,-0.872243502,5.394811241,0.203861253,10.81095374,3.105726906,2.188204971,1197.574643,1216.202771,1165.242221,1166.185789,1997.695503,1621.526537,-2022.899399,-2494.165215,161.415897
11.8925,7.488422993,-1.385896674,0.096857904,1.454259678,-1.272705876,-0.048794311,-0.294076133,-0.168430871,0.063616726,0.938679738,-0.151273219,-1.269228402,9.342867852,-0.880727708,5.404632726,0.199046016,10.80870806,3.11913472,2.188700633,1202.863877,1220.208841,1160.164572,1160.103635,2148.347506,1500.217369,-1970.904744,-2282.349052,161.4202138
11.895,5.454996363,-1.130436733,0.183869199,1.468924393,-1.274358455,-0.048649959,-0.292468462,-0.169889117,0.06434947,0.938870297,-0.1550331,-1.272793123,9.337783615,-0.889276354,5.414346058,0.194228202,10.80644633,3.132560286,2.189180935,1208.316381,1223.703858,1155.387697,1154.774044,2265.449572,1323.833131,-1937.190555,-2081.534214,161.424349
11.8975,3.253009893,-0.962289344,0.318449783,1.47988943,-1.275466861,-0.048503084,-0.290857792,-0.1713534,0.065070506,0.939054277,-0.159628604,-1.275674512,9.337470363,-0.897895848,5.423959213,0.189415303,10.80416727,3.146008274,2.18964715,1214.191125,1226.828006,1150.478619,1149.695964,1909.491719,906.9830868,-1599.020221,-1587.915275,161.429109
11.9,1.760565462,-0.941661549,0.450492275,1.48446222,-1.276510456,-0.048096037,-0.289220286,-0.172817302,0.065784236,0.939239113,-0.165145076,-1.277575602,9.341507999,-0.90659235,5.433479182,0.184614216,10.8018677,3.159485509,2.190102546,1217.863839,1228.238773,1147.392596,1146.834468,1069.367811,262.7377393,-970.436362,-812.4619675,161.4329121
11.9025,0.77157598,-1.026360308,0.588601601,1.484998892,-1.278724573,-0.047096727,-0.287538289,-0.174275165,0.06649503,0.939430052,-0.171643184,-1.278340433,9.349397971,-0.915371662,5.442911817,0.179831122,10.79954506,3.172998075,2.190549987,1219.537964,1228.141695,1145.626438,1145.633654,153.7887169,-423.8451901,-449.7421334,-116.1076963,161.4365509
11.905,0.296569333,-1.213773449,0.736327076,1.482271905,-1.282900392,-0.04520514,-0.285804379,-0.175727331,0.067205904,0.93962808,-0.179065176,-1.278038144,9.360568086,-0.924239112,5.452261734,0.175071402,10.79719767,3.186548716,2.190990968,1218.632783,1226.119548,1145.143885,1146.253929,-854.1879416,-1058.505805,78.89912399,570.1150561,161.4407322
11.9075,0.547561169,-1.420237718,0.824214305,1.479272886,-1.287051424,-0.043155505,-0.284014281,-0.177176313,0.067919108,0.939832873,-0.18729781,-1.276808207,9.374406816,-0.933199458,5.461532246,0.170339559,10.79482471,3.200136376,2.191426618,1215.267024,1222.849166,1146.020933,1148.484229,-1857.023073,-1605.812107,560.1410421,1217.199991,161.4440649
11.91,1.471979214,-1.669634517,0.853067073,1.478273222,-1.291247641,-0.040428924,-0.282166447,-0.17862542,0.068634328,0.940043479,-0.196202347,-1.274847741,9.390276905,-0.942256792,5.470725347,0.16563918,10.79242708,3.21375817,2.191857858,1209.347667,1218.090487,1147.94459,1152.339929,-2712.315543,-2106.049384,882.2566916,1765.273123,161.4472423
11.9125,2.909707375,-1.957826413,0.821489314,1.4804228,-1.295358379,-0.037150496,-0.280261147,-0.180074603,0.069352137,0.940259355,-0.205681989,-1.272366439,9.407530447,-0.951414456,5.479841724,0.160972919,10.79000485,3.227410072,2.192284207,1201.705446,1212.318919,1150.432217,1157.310595,-3325.489686,-2480.508611,1048.988755,2173.584868,161.4502916
11.915,4.863553361,-2.298930526,0.718367141,1.487692623,-1.299693414,-0.034026215,-0.278297931,-0.181523885,0.070069906,0.940481095,-0.215628793,-1.269554068,9.425522812,-0.960674976,5.488880809,0.156342508,10.78755921,3.24108787,2.192705312,1192.720219,1205.687944,1153.189534,1163.207853,-4041.95794,-3006.575863,1175.872934,2674.317257,161.4531865
11.9175,7.623533774,-2.766936498,0.538848181,1.503650174,-1.306067473,-0.03156058,-0.276271848,-0.182973561,0.07078608,0.940711592,-0.225906085,-1.266488819,9.443632074,-0.970040009,5.497840845,0.151748814,10.78509079,3.254789365,2.193120887,1181.495656,1197.28604,1156.311581,1170.682181,-4026.998723,-3066.307552,1053.583923,2697.74589,161.4564806
11.92,10.11076904,-3.192995104,0.375459063,1.523640864,-1.312797851,-0.03093657,-0.274190198,-0.184427797,0.071499373,0.940950913,-0.23629966,-1.263465887,9.461220559,-0.979510306,5.506718985,0.147191925,10.78260001,3.268513733,2.193528401,1172.585225,1190.356406,1158.457454,1176.696583,-3302.44199,-2644.729234,711.4971496,2231.987896,161.4590745
11.9225,12.58197084,-3.631724016,0.237096843,1.551202682,-1.320804583,-0.031486144,-0.272086254,-0.185898775,0.07221027,0.941191743,-0.246450037,-1.261265028,9.477605902,-0.989085703,5.5155114,0.142671295,10.78008733,3.282260223,2.193922404,1164.983447,1184.062394,1159.869067,1181.842121,-2727.601754,-2328.035146,417.9389608,1828.358802,161.4615095
11.925,14.87684565,-4.05869544,0.138211123,1.585161538,-1.329641773,-0.032352822,-0.269988309,-0.187397228,0.072915316,0.941428536,-0.256021011,-1.260564387,9.492141128,-0.998765122,5.524213395,0.138185899,10.77755474,3.296026114,2.194298296,1158.947217,1178.71623,1160.547148,1185.838377,-1969.115876,-1819.082607,78.43788585,1242.586516,161.4638118
11.9275,16.77338146,-4.440345247,0.089724797,1.626251519,-1.339654739,-0.032978861,-0.267916634,-0.188933866,0.07361772,0.941649851,-0.264617056,-1.26188195,9.504228835,-1.008546554,5.532819514,0.133734221,10.77500427,3.309804303,2.19465002,1155.137867,1174.966981,1160.261256,1188.055053,-1140.940658,-1196.925628,-355.7265028,504.3625148,161.4659526
11.93,18.39313298,-4.800632285,0.07198974,1.681834068,-1.353518674,-0.033074132,-0.265870105,-0.190511479,0.07432353,0.941852284,-0.271967629,-1.265265798,9.513362581,-1.018426903,5.541323567,0.129313626,10.77243508,3.323593246,2.194975119,1153.242513,1172.731602,1158.768516,1188.360189,-279.7202629,-418.1021712,-736.7516244,-290.6573679,161.4683334
11.9325,19.1037948,-4.988225731,0.069609473,1.731152178,-1.366644029,-0.032575049,-0.263831226,-0.192121107,0.075038118,0.942042712,-0.278030986,-1.27037893,9.519119377,-1.02840201,5.549718756,0.124920445,10.76984492,3.337396384,2.195274921,1153.739266,1172.87647,1156.577498,1186.601767,551.6272083,450.7331232,-1061.880639,-1095.212421,161.4701597
11.935,19.11320791,-5.03760864,0.055316289,1.78082652,-1.380456112,-0.031713151,-0.261766785,-0.193743594,0.075765961,0.942237957,-0.282971144,-1.276517541,9.521168425,-1.038466754,5.557997832,0.120550289,10.76722988,3.351217512,2.195554156,1156.000649,1174.985268,1153.459113,1182.884127,1284.029894,1288.852019,-1559.960276,-2018.77142,161.4718214
11.9375,18.35772465,-4.946320859,0.006853115,1.83790684,-1.396061184,-0.030722356,-0.259626219,-0.195350481,0.076511826,0.942461428,-0.287126462,-1.282599129,9.519286955,-1.048615184,5.566153248,0.116198414,10.76458453,3.365064703,2.19582151,1160.159415,1179.32073,1148.777697,1176.50791,1677.275355,1789.329249,-1842.861397,-2587.494732,161.473624
11.94,17.16652107,-4.771577806,-0.061932331,1.881746766,-1.407596546,-0.030136986,-0.257360774,-0.196922593,0.077279214,0.942723732,-0.290637475,-1.287641474,9.513320702,-1.058840603,5.574177298,0.111859816,10.76190517,3.378942069,2.196085959,1164.387026,1183.931914,1144.244806,1169.946654,1758.616048,1912.375092,-1895.425747,-2789.232851,161.474966
11.9425,15.51490851,-4.533787714,-0.151049022,1.92069052,-1.417762781,-0.029931356,-0.254946805,-0.198449656,0.078070156,0.943026319,-0.293514119,-1.291164424,9.503137871,-1.069135467,5.58206215,0.107528502,10.75919064,3.392848959,2.196353877,1168.952496,1188.882605,1139.300568,1162.561745,1832.121011,1935.513776,-2001.487014,-3018.973492,161.4761406
11.945,13.57996926,-4.266708098,-0.242921233,1.955305889,-1.42710195,-0.030112669,-0.252387525,-0.199933802,0.078879432,0.943363668,-0.295598364,-1.293243258,9.488631489,-1.079491494,5.589800001,0.103197604,10.75644421,3.406780548,2.196627921,1173.547631,1193.609483,1134.237371,1154.851786,1806.223555,1738.53392,-1994.46787,-3081.520065,161.4771752
11.9475,11.41783726,-3.975079918,-0.315268211,1.984596913,-1.435713267,-0.030848142,-0.249704103,-0.201385072,0.079700295,0.943725779,-0.296628819,-1.294304754,9.469751908,-1.089899863,5.597383243,0.09885974,10.75366978,3.420734256,2.196907402,1177.983613,1197.575275,1129.328229,1147.154145,1884.496657,1490.622515,-2047.095066,-3291.934027,161.4780395
11.95,8.698694625,-3.586222797,-0.348288628,2.013374553,-1.446152178,-0.032447279,-0.246927201,-0.202814367,0.080530568,0.944100935,-0.296354829,-1.294921292,9.446535534,-1.100351408,5.604804621,0.094507341,10.75086931,3.434709273,2.197188853,1182.970114,1201.062596,1124.001895,1138.392116,1757.240589,1049.789554,-1807.722775,-3076.458631,161.4788772
11.9525,6.425308506,-3.210397281,-0.312384296,2.031873264,-1.455645222,-0.034320671,-0.24409108,-0.204229999,0.081373659,0.94447754,-0.294597557,-1.295682702,9.419121533,-1.11083682,5.612057386,0.09013293,10.74804234,3.448703339,2.197466642,1186.769816,1202.824223,1120.289615,1131.771852,1428.790318,491.2897681,-1286.960109,-2451.070765,161.4794071
11.955,4.258935371,-2.765670027,-0.202179456,2.044386342,-1.46518873,-0.036356003,-0.241225853,-0.205636579,0.082234642,0.944846427,-0.291274897,-1.297060663,9.387767805,-1.121346843,5.619135426,0.085729362,10.74518748,3.462714124,2.197735266,1190.114066,1203.519044,1117.567095,1126.136762,1342.700372,126.2733982,-940.3500125,-2203.677612,161.4797596
11.9575,1.916931998,-2.174598503,-0.00096483,2.052456133,-1.474704091,-0.038057228,-0.23835703,-0.207038436,0.083118211,0.945200134,-0.286341056,-1.299417595,9.352847078,-1.131872471,5.626033388,0.081290034,10.74230263,3.476742541,2.197990547,1193.483318,1203.45559,1115.587865,1120.753464,1110.991737,-113.9541291,-510.4680281,-1721.003815,161.4799739
11.96,0.273095039,-1.682324024,0.193250982,2.05390002,-1.479996444,-0.038303483,-0.235501106,-0.208438023,0.084026155,0.945534377,-0.279817557,-1.302931467,9.31484958,-1.142405148,5.632746785,0.076809074,10.73938653,3.490787681,2.19823049,1195.669025,1202.949274,1115.014755,1117.531743,732.7698564,-233.5018651,-28.0921049,-1014.576226,161.4799758
11.9625,-0.956611042,-1.270051953,0.364587331,2.050786067,-1.482097949,-0.036673124,-0.232665897,-0.209836062,0.084958034,0.945847716,-0.271787262,-1.307602914,9.274373985,-1.152936956,5.639272086,0.072281495,10.7364393,3.504847967,2.198455047,1197.147167,1202.28808,1115.447404,1115.680583,476.2486955,-257.7373463,309.1730514,-517.4412787,161.479791
11.965,-1.793258573,-0.980388998,0.481370597,2.044978347,-1.482021595,-0.033425063,-0.22985058,-0.211236124,0.085911514,0.94614038,-0.262304309,-1.313271089,9.232118576,-1.163460801,5.645606793,0.067703337,10.73346134,3.518924328,2.198666296,1198.050268,1201.660587,1116.56062,1114.944537,241.8455956,-227.755792,561.0480237,-46.79719907,161.4794489
11.9675,-2.131485394,-0.874558701,0.513948372,2.037685651,-1.480888974,-0.029638366,-0.22705065,-0.212644819,0.086881638,0.946412994,-0.251396027,-1.319712701,9.188855844,-1.173970588,5.651749492,0.063071791,10.73045298,3.533020016,2.198865955,1198.356395,1201.149301,1118.252645,1115.446597,35.81217372,-208.4773068,810.9797433,461.7660846,161.4789144
11.97,-1.978964671,-0.945397294,0.480009098,2.029273466,-1.48095229,-0.027099508,-0.224263326,-0.214064879,0.087865978,0.946666286,-0.239186849,-1.326704475,9.145406925,-1.184461384,5.657699898,0.058385297,10.7274147,3.54713497,2.199054808,1198.229329,1200.618201,1120.615519,1117.253367,-99.08419388,-204.7240119,876.3558027,821.3399511,161.478047
11.9725,-1.431245053,-1.119765747,0.43367176,2.023834623,-1.483373919,-0.027242405,-0.221486437,-0.215498912,0.08886443,0.946900521,-0.225823048,-1.334015723,9.102631241,-1.194929563,5.663458869,0.053643627,10.72434704,3.561265449,2.199232751,1197.860974,1200.125681,1122.634424,1119.553296,-176.2979959,-244.2495959,776.9284019,1031.930317,161.4771332
11.975,-0.527128459,-1.33696697,0.416924143,2.021166038,-1.488183769,-0.028132793,-0.218719007,-0.216949144,0.089878276,0.947115506,-0.211476197,-1.341424724,9.061408951,-1.205372924,5.669028408,0.048847935,10.72125047,3.57540808,2.199399863,1197.347839,1199.396953,1124.500161,1122.413019,-222.408169,-356.9396724,705.0985655,1200.258556,161.4760186
11.9775,0.602088038,-1.54262483,0.441290381,2.021303862,-1.494025353,-0.02849415,-0.215956274,-0.218418643,0.090909237,0.947311591,-0.196310224,-1.348639523,9.022637826,-1.215790787,5.674411636,0.044000783,10.71812404,3.589560804,2.199556106,1196.748934,1198.340983,1126.159916,1125.554589,-265.430462,-523.4840143,616.8455876,1289.425922,161.4747352
11.98,1.916756158,-1.710096978,0.510082831,2.025235,-1.499674684,-0.027914274,-0.213190201,-0.219907382,0.091958407,0.947490562,-0.180550353,-1.355306099,8.98721393,-1.226184055,5.679612751,0.039106149,10.7149665,3.603724631,2.199701634,1196.020687,1196.779533,1127.584389,1128.860148,-364.811436,-814.8536809,601.4769174,1460.544444,161.4732458
11.9825,3.609159868,-1.875956828,0.619027067,2.034611612,-1.504932194,-0.026193384,-0.210411784,-0.221414802,0.093023806,0.947654785,-0.164434512,-1.361070156,8.956006475,-1.236555247,5.684636958,0.03416941,10.71177776,3.617899906,2.199837142,1194.924876,1194.266715,1129.167301,1132.857311,-447.9562166,-1022.587725,592.5154283,1455.652834,161.4712167
11.985,5.057337325,-2.0045512,0.710135041,2.046232643,-1.508345564,-0.024198227,-0.207617858,-0.222937634,0.094098589,0.947806384,-0.148257799,-1.365701949,8.929819653,-1.246908494,5.68949039,0.029197306,10.70856116,3.632083407,2.1999631,1193.780906,1191.666594,1130.546966,1136.138413,-509.2535954,-1125.021544,605.2194275,1288.287174,161.4693209
11.9875,6.498514866,-2.136863721,0.780066635,2.061104207,-1.512292593,-0.02207711,-0.204808631,-0.22447072,0.095173261,0.947947417,-0.132342564,-1.369047157,8.909382838,-1.257249498,5.694179996,0.024197859,10.70532104,3.646272067,2.200079216,1192.378608,1188.641607,1132.193398,1139.298747,-670.8474926,-1392.399138,817.9039664,1343.119705,161.4672077
11.99,8.19073959,-2.292263038,0.822458118,2.082025972,-1.518635666,-0.019513508,-0.201982551,-0.226010663,0.096238512,0.948079908,-0.116953954,-1.370937403,8.895348671,-1.267585445,5.698713426,0.019180275,10.7020612,3.660465325,2.200185504,1190.426668,1184.704598,1134.636486,1142.854011,-751.1879389,-1461.235918,978.0092595,1243.191291,161.464414
11.9925,9.553794064,-2.405950365,0.814573172,2.102364464,-1.524950063,-0.017235276,-0.199139934,-0.227556535,0.097286583,0.948204775,-0.102286755,-1.371253723,8.888266557,-1.277924892,5.703098893,0.01415481,10.69878359,3.674665478,2.200280918,1188.622669,1181.335427,1137.083444,1145.514704,-744.6565543,-1321.261811,1042.232392,967.3445611,161.461866
11.995,10.84068278,-2.493538146,0.756045741,2.126406623,-1.531429275,-0.014710142,-0.196287769,-0.229111036,0.098313091,0.948320339,-0.088447059,-1.37000971,8.88855461,-1.28827761,5.707345027,0.009132606,10.69548857,3.688874842,2.200362972,1186.703385,1178.098289,1139.847648,1147.690734,-777.0847716,-1240.012133,1122.922295,758.8957423,161.4590826
11.9975,12.0356324,-2.560548396,0.657077572,2.153689329,-1.537335244,-0.01218031,-0.193439252,-0.230681741,0.099315126,0.948422329,-0.075429727,-1.367357677,8.896486255,-1.298654403,5.711460719,0.004125512,10.69217553,3.703096571,2.200427382,1184.737245,1175.135367,1142.698056,1149.309182,-787.5905365,-1088.720128,1103.209285,472.980127,161.4560983
12,13.08087524,-2.607299906,0.522351699,2.184599373,-1.542539359,-0.010400652,-0.19060839,-0.232275963,0.100292541,0.948506095,-0.063201009,-1.363480759,8.912196924,-1.309066893,5.71545496,-0.000854131,10.68884343,3.717331498,2.200469594,1182.765433,1172.654689,1145.363694,1150.055635,-852.7661298,-965.3045874,1054.182863,80.64134623,161.4528647
12.0025,14.11958753,-2.633519999,0.347344073,2.224766127,-1.548913378,-0.009785955,-0.187812017,-0.233898103,0.101246626,0.948566955,-0.051751585,-1.358632254,8.935672401,-1.31952729,5.719336677,-0.005793721,10.68549216,3.73157809,2.20048529,1180.473414,1170.308844,1147.96897,1149.712389,-807.82048,-765.1214329,812.5664676,-356.0588979,161.4486878
12.005,14.78564724,-2.611605941,0.209557646,2.259610226,-1.554805302,-0.010050178,-0.185064353,-0.235548953,0.10218383,0.948601035,-0.041097213,-1.353029703,8.966764612,-1.330048143,5.723114558,-0.010680647,10.68212123,3.745834887,2.200472132,1178.72633,1168.829081,1149.426526,1148.27534,-624.7950528,-523.2465155,408.0244225,-823.3467896,161.4449552
12.0075,15.23044412,-2.509951429,0.09032138,2.295041181,-1.561241711,-0.010074872,-0.182372697,-0.237223508,0.103112261,0.948606968,-0.03131829,-1.346791483,9.005204199,-1.340642082,5.726796885,-0.01550254,10.67873006,3.760099705,2.200429623,1177.349439,1167.692611,1150.009092,1145.595655,-455.4359494,-457.4522202,58.39830944,-1449.433069,161.440957
12.01,15.48833622,-2.254867862,-0.033368496,2.338366318,-1.569213012,-0.009619533,-0.179724027,-0.238910719,0.104044683,0.948588183,-0.022541695,-1.339687755,9.050645196,-1.351321566,5.730391369,-0.020247531,10.67531664,3.774369076,2.200360068,1176.449151,1166.54182,1149.718518,1141.028175,-153.7686356,-399.9172842,-249.2488004,-1869.950164,161.4358491
12.0125,15.44890378,-1.910209129,-0.122093982,2.375305994,-1.575636341,-0.00910473,-0.177087676,-0.240588562,0.104997398,0.948553665,-0.015043521,-1.331171699,9.102668432,-1.362098628,5.733904981,-0.02490448,10.67187765,3.788639857,2.200268955,1176.580596,1165.693025,1148.762848,1136.245904,285.9564748,-306.611844,-491.7705081,-2063.758521,161.4313333
12.015,15.1084945,-1.422800549,-0.189407635,2.412887155,-1.581237991,-0.008844825,-0.174425576,-0.242242075,0.105976647,0.948512919,-0.008949597,-1.320658063,9.160753519,-1.372984652,5.7373438,-0.029463177,10.66841192,3.802910847,2.200163621,1177.878933,1165.008761,1147.259665,1130.709382,732.4362987,-219.6403448,-661.6622265,-2294.021324,161.4265492
12.0175,14.49511343,-0.831927131,-0.225483876,2.450225464,-1.58554295,-0.009165612,-0.171719891,-0.2438717,0.106976866,0.948468864,-0.004128736,-1.308048642,9.224218741,-1.383990148,5.740712867,-0.033914506,10.66492215,3.817180522,2.200049322,1180.242777,1164.594823,1145.454537,1124.775798,1195.460377,-53.17309129,-763.5737811,-2411.913951,161.4215442
12.02,13.54523588,-0.158696326,-0.201515985,2.485710338,-1.5875854,-0.010598012,-0.168956995,-0.245475185,0.107995677,0.948423846,-0.000488974,-1.293338586,9.292300463,-1.395124569,5.744016051,-0.038250573,10.66140934,3.831448822,2.199929795,1183.856235,1164.742896,1143.441796,1118.649812,1829.103237,258.0240565,-905.5185174,-2671.307833,161.4162761
12.0225,12.04400478,0.666218819,-0.083135231,2.52434719,-1.586982458,-0.013024592,-0.166123677,-0.24704729,0.109032855,0.948380689,0.002017349,-1.27654737,9.364185751,-1.406396142,5.747255952,-0.042464806,10.65787311,3.845717502,2.199807856,1189.388293,1165.884943,1140.926945,1111.419259,2167.590406,615.5690119,-928.355277,-2589.891527,161.4096556
12.025,10.53652091,1.30347492,0.086269227,2.552306362,-1.583929718,-0.014502718,-0.163217569,-0.248589544,0.110084192,0.948339188,0.003550481,-1.257958718,9.439002833,-1.417811749,5.75043381,-0.046552,10.65431361,3.859988742,2.199684525,1194.694187,1167.820741,1138.80002,1105.700355,2179.284978,999.639493,-856.189829,-2190.174755,161.4038942
12.0275,8.834607785,1.817644622,0.297711481,2.57517221,-1.578537096,-0.014395425,-0.160243548,-0.250112962,0.111138354,0.948296697,0.004438943,-1.23807652,9.515853116,-1.429376831,5.753549464,-0.050508308,10.65073121,3.874263691,2.199559633,1200.284718,1170.883141,1136.645995,1100.468385,2215.781333,1407.939654,-871.9921725,-1999.688589,161.3978855
12.03,7.029023013,2.191044045,0.508100784,2.593911862,-1.57164637,-0.01278758,-0.157215865,-0.251631446,0.112183382,0.948249057,0.00505351,-1.21761416,9.593836848,-1.441095346,5.756601334,-0.054331184,10.64712399,3.888545875,2.199431551,1205.773094,1174.860439,1134.440059,1095.701912,2096.78507,1783.730352,-906.4027503,-1793.311121,161.3916771
12.0325,5.163103251,2.376398957,0.676082512,2.607998969,-1.564126777,-0.009878251,-0.154137316,-0.253152106,0.113212846,0.94819637,0.005659027,-1.197039892,9.672132603,-1.452969772,5.759586441,-0.058019275,10.64348702,3.902839006,2.199300584,1210.768644,1179.801792,1132.113982,1091.501829,2008.826905,2335.752202,-1065.881903,-1727.450633,161.3852351
12.035,2.929868105,2.398406255,0.797711978,2.619548299,-1.556003408,-0.006230132,-0.151005802,-0.254670952,0.114224297,0.948143726,0.006301905,-1.176670519,9.749997755,-1.465001154,5.762500473,-0.061572246,10.63981429,3.917146245,2.199167601,1215.817228,1186.5392,1129.11065,1087.064659,1657.829086,2545.566714,-1143.257844,-1537.32712,161.3772449
12.0375,1.126118421,2.28367503,0.829509833,2.624652809,-1.550423641,-0.003733136,-0.147815513,-0.256177364,0.115220277,0.948100145,0.006884711,-1.156682488,9.826777957,-1.477189211,5.765337871,-0.064990535,10.63609849,3.931472762,2.199033275,1219.057789,1192.529626,1126.397692,1083.815194,1078.703915,2391.70721,-1127.576596,-1217.579448,161.3703784
12.04,-0.555828384,2.079288692,0.801080589,2.625019725,-1.545763351,-0.001776127,-0.144574989,-0.257659625,0.116206334,0.948072564,0.007238125,-1.137474543,9.901872252,-1.48953249,5.768091959,-0.068275047,10.6323356,3.945820243,2.198896972,1221.210748,1198.497736,1123.472767,1080.976761,707.3797007,2519.742943,-1318.069298,-1158.816369,161.3633065
12.0425,-2.361708399,1.780119352,0.717353178,2.620185141,-1.540727968,0.000492483,-0.141298687,-0.259118504,0.117187099,0.94805746,0.007440642,-1.119582742,9.974752443,-1.502028502,5.770755092,-0.071427008,10.62852627,3.960189332,2.198757465,1222.594688,1205.128341,1119.807346,1078.021112,333.0646144,2272.682997,-1344.10469,-1005.896664,161.3545958
12.045,-3.641589634,1.51500266,0.62131071,2.61229543,-1.536846637,0.002450618,-0.138008171,-0.26055833,0.118169194,0.948047931,0.007617097,-1.103642951,10.04497037,-1.514673729,5.773318829,-0.0744484,10.62467105,3.974579511,2.19861256,1222.876071,1209.861151,1116.752243,1075.947278,-23.98759572,1659.02953,-1176.547547,-738.4368563,161.3471589
12.0475,-4.641717244,1.263575139,0.519376449,2.601109019,-1.533271582,0.004233653,-0.134728617,-0.261992999,0.119151946,0.948030776,0.008075579,-1.090393819,10.11215695,-1.527463755,5.77577411,-0.077341962,10.62077436,3.988985003,2.198459612,1222.47475,1213.423488,1113.924608,1074.328927,-235.1015664,1195.246929,-1050.232363,-560.1460429,161.339548
