t,ang acc x,ang acc y,ang acc z,ang vel x,ang vel y,ang vel z,quat x,quat y,quat z,quat w,acc x,acc y,acc z,vel x,vel y,vel z,pos x,pos y,pos z,mot 1,mot 2,mot 3,mot 4,dmot 1,dmot 2,dmot 3,dmot 4,vbat
2.8525,-0.578718008,0.091777311,-0.495344977,-0.024148235,0.005799028,0.00622198,0.003647074,-0.004276992,0.09242904,0.995703166,-0.009667655,0.014973865,9.796389938,0.006140031,-0.010612561,0.000327563,-5.036052868,4.49802099,2.009281944,1164.802703,1133.100033,1107.116769,1126.954047,-740.0429956,184.4410636,-75.97348261,424.8539991,158.4499736
2.855,-0.430234793,0.121026454,-0.52817775,-0.025283816,0.006540455,0.003294339,0.003667152,-0.004262762,0.092457458,0.99570058,-0.010228374,0.020160712,9.796509226,0.006136826,-0.010511284,0.000342626,-5.036029563,4.49800352,2.009277196,1162.989262,1133.402159,1106.939063,1127.858763,-710.7630387,56.54893298,-63.74935654,297.4189735,158.4516286
2.8575,-0.311246777,0.109329349,-0.449480181,-0.02605283,0.00690257,0.001212101,0.003679289,-0.004261369,0.092485189,0.995698057,-0.010981944,0.024605011,9.796404945,0.006125044,-0.010402745,0.000363915,-5.036005891,4.49798262,2.009275576,1161.248888,1133.382778,1106.798022,1128.441142,-678.908164,-92.18648581,-39.64306075,144.4299966,158.4532388
2.86,-0.216698019,0.072683678,-0.26464897,-0.0263957,0.006834817,-0.000213536,0.003686567,-0.004275659,0.092512066,0.995695586,-0.011841402,0.028332033,9.796061416,0.006104405,-0.010286376,0.000386509,-5.035982522,4.497959003,2.009277584,1159.594721,1132.941226,1106.740848,1128.580913,-496.8300609,-225.861944,8.863596602,-54.57380965,158.4551103
2.8625,-0.185277984,0.039899857,-0.072179509,-0.026341068,0.006498102,-0.000581708,0.003688768,-0.00430232,0.092536316,0.995693339,-0.012842803,0.031320852,9.795472732,0.006075217,-0.010161606,0.000405404,-5.035960593,4.497933214,2.009282892,1158.764738,1132.253468,1106.84234,1128.168273,-197.9391429,-320.123032,81.59531652,-267.4481099,158.4566135
2.865,-0.204220842,0.0182047,0.114173974,-0.026307544,0.006361003,-0.000182057,0.003684926,-0.004339569,0.092554871,0.995691603,-0.0139916,0.033540052,9.794641271,0.00603818,-0.010028248,0.000415969,-5.035940902,4.497906235,2.009290804,1158.605025,1131.340611,1107.148824,1127.243672,41.78003718,-379.585073,157.5362144,-433.4148553,158.4580525
2.8675,-0.259294641,0.011196114,0.263388688,-0.026525058,0.006566876,0.000837354,0.003677124,-0.004384288,0.092571943,0.99568997,-0.015311028,0.035026639,9.793576581,0.005993912,-0.009886841,0.000414518,-5.035923194,4.497879688,2.009300569,1158.973638,1130.355543,1107.630022,1126.001199,244.7874976,-383.4753373,224.2662109,-535.8073482,158.4594346
2.87,-0.344884322,0.028172253,0.336213302,-0.027157763,0.006710056,0.002593621,0.003667837,-0.004431459,0.092587296,0.995688447,-0.016859925,0.035836194,9.79229476,0.005942896,-0.009738574,0.000398597,-5.03590648,4.497853725,2.009311104,1159.828963,1129.423234,1108.270155,1124.564636,428.9555419,-372.4176099,291.6709234,-625.6839815,158.460745
2.8725,-0.462165846,0.086874408,0.311026573,-0.028285878,0.006293279,0.00536563,0.003659801,-0.004476005,0.092602537,0.99568686,-0.018696544,0.036037182,9.79081665,0.005885167,-0.009585311,0.000367164,-5.035889804,4.497828588,2.009321311,1161.118416,1128.493455,1109.088376,1122.872779,466.7635082,-303.8758978,283.557871,-584.261704,158.4622314
2.875,-0.556145288,0.172627332,0.196710875,-0.029376896,0.005828014,0.007768551,0.003652844,-0.004516924,0.092621068,0.99568485,-0.020803671,0.035642108,9.789166266,0.005820273,-0.009429522,0.000320507,-5.035872504,4.49780513,2.009329849,1162.16278,1127.903855,1109.687945,1121.643327,357.7006904,-208.6703837,195.1935451,-432.8734808,158.4633968
2.8775,-0.626234556,0.291899102,0.013966775,-0.030837851,0.005910183,0.009207173,0.003645787,-0.004550641,0.092641796,0.99568248,-0.023215932,0.034657376,9.787369375,0.005747484,-0.009274074,0.000260226,-5.035854702,4.497783686,2.009335415,1162.906919,1127.450103,1110.064344,1120.708412,217.8507683,-198.4195072,94.50767872,-339.9721034,158.4644845
2.88,-0.658938881,0.455119185,-0.220107613,-0.033389744,0.006742554,0.008642483,0.003637282,-0.004575608,0.092663385,0.995679821,-0.025927868,0.033091288,9.785451161,0.005665858,-0.009122099,0.000188849,-5.035836653,4.497763847,2.00933741,1163.252034,1126.911757,1110.160483,1119.943466,27.51017545,-221.9091318,-26.90117987,-230.2225121,158.4656986
2.8825,-0.630464354,0.589470072,-0.373668036,-0.036068229,0.007895773,0.006200864,0.003627008,-0.004599414,0.092685351,0.995676813,-0.028753308,0.030964418,9.783434095,0.005574357,-0.008976804,0.000109298,-5.035818099,4.497745394,2.009336504,1163.04447,1126.340557,1109.929838,1119.557299,-167.5206762,-277.6804696,-148.4644203,-120.2636014,158.4666332
2.885,-0.543241268,0.697980725,-0.436777909,-0.038569847,0.009802315,0.002902993,0.003614486,-0.00462532,0.092707114,0.995673429,-0.031590281,0.028310734,9.781338904,0.005471983,-0.008841309,2.46E-05,-5.03579947,4.497727701,2.009333544,1162.414431,1125.523355,1109.418161,1119.342148,-291.0228031,-374.2258808,-239.4443682,-71.1823267,158.4674867
2.8875,-0.420800835,0.768459023,-0.414863729,-0.040318613,0.012492911,-1.59E-06,0.003597684,-0.004654271,0.09272882,0.995669611,-0.03438465,0.025146181,9.779184297,0.005357863,-0.008718564,-6.26E-05,-5.035780973,4.497709965,2.009329641,1161.589356,1124.469428,1108.732616,1119.201387,-328.0095498,-468.9127111,-298.9138665,-49.55823061,158.4682723
2.89,-0.284941448,0.782989345,-0.310337261,-0.040915498,0.015490441,-0.001858601,0.003579065,-0.004685757,0.092757224,0.995664715,-0.03710192,0.02158411,9.776985865,0.005231215,-0.008611396,-0.00014999,-5.035762099,4.497692955,2.009325038,1160.774383,1123.178791,1107.923592,1119.094357,-295.296577,-589.1174472,-361.017444,-43.78013228,158.4689753
2.8925,-0.146199585,0.743473212,-0.14224191,-0.040491704,0.018546027,-0.002605256,0.003562533,-0.004715361,0.092794636,0.995658588,-0.039782736,0.017779191,9.77475759,0.005091614,-0.00852237,-0.000235911,-5.03574297,4.497676972,2.00931918,1160.112873,1121.52384,1106.927529,1118.982487,-157.8540549,-589.7844938,-351.8920154,-34.79570934,158.4697226
2.895,-0.071991224,0.681854224,-0.012834347,-0.039621382,0.020390982,-0.001987869,0.00355082,-0.004741158,0.09283851,0.995651629,-0.042423402,0.013863354,9.772512746,0.004939111,-0.008453719,-0.000319512,-5.035723675,4.497662154,2.009312084,1159.985113,1120.229869,1106.164132,1118.920379,51.45420196,-454.9058312,-271.2631835,-10.51876212,158.4702649
2.8975,-0.048969772,0.619915667,0.056857593,-0.038916647,0.021455718,-0.000424264,0.003548114,-0.004765871,0.092889933,0.995643997,-0.044929014,0.009991435,9.770264474,0.004774197,-0.0084073,-0.000400882,-5.035703933,4.497649216,2.009305118,1160.370144,1119.249311,1105.571213,1118.929893,272.8399404,-313.6467822,-202.1432117,26.53297245,158.4707239
2.9,-0.069035964,0.575539474,0.039809136,-0.038794467,0.022041774,0.001659304,0.003554313,-0.004786551,0.092946816,0.995636364,-0.047326227,0.006246044,9.768028658,0.004598069,-0.00838433,-0.000481064,-5.035684822,4.497637789,2.009299528,1161.349312,1118.661635,1105.153416,1119.053044,415.3848264,-95.536515,-95.36945725,61.51434198,158.47118
2.9025,-0.109449745,0.575408731,-0.059176963,-0.039395411,0.022412684,0.002787538,0.003563474,-0.004796577,0.09300672,0.995629715,-0.049727276,0.002601913,9.765824819,0.004412646,-0.008385182,-0.000561966,-5.03566828,4.497626606,2.009295878,1162.447068,1118.771629,1105.094366,1119.237465,446.113704,175.4680455,39.25887958,79.11593245,158.4714831
2.905,-0.156704996,0.611157774,-0.223945863,-0.040360367,0.023144822,0.002756098,0.003566408,-0.004794134,0.09306761,0.995624919,-0.0521608,-0.001041083,9.763675853,0.004220399,-0.008409238,-0.000646142,-5.035655587,4.497614293,2.009294631,1163.579881,1119.538975,1105.34971,1119.448623,414.5945302,405.5172122,150.6960278,75.26758348,158.4717097
2.9075,-0.202813075,0.663911539,-0.416874223,-0.041210614,0.024342946,0.00194787,0.003562139,-0.004781181,0.093126791,0.995621645,-0.054571326,-0.004635407,9.761607099,0.00402398,-0.00845486,-0.000736224,-5.035645242,4.497600482,2.009295048,1164.520041,1120.799215,1105.847846,1119.613803,278.6429405,592.8225576,247.2496573,37.7584313,158.471876
2.91,-0.247373186,0.714035597,-0.609761947,-0.041720227,0.026162815,0.000409778,0.00355293,-0.004758207,0.093179005,0.995619652,-0.056930514,-0.00807532,9.759647724,0.003825865,-0.008519467,-0.000834611,-5.035635804,4.497584842,2.009296402,1164.973096,1122.503088,1106.585958,1119.637415,38.2187783,796.7384699,359.4154189,-36.33334853,158.4719743
2.9125,-0.30222962,0.740372635,-0.801254177,-0.042220007,0.028755934,-0.002283625,0.00354007,-0.004729428,0.09322061,0.995618757,-0.059143133,-0.011290017,9.757830787,0.003628054,-0.008599755,-0.000943331,-5.035626392,4.497567168,2.009298597,1164.711135,1124.782907,1107.644923,1119.432136,-245.3314346,828.7270451,397.6871599,-113.5182688,158.472021
2.915,-0.349429885,0.715879041,-0.904422094,-0.042813967,0.030928992,-0.005258027,0.00352479,-0.004696023,0.093252192,0.995618592,-0.061176276,-0.014214586,9.756192755,0.003431964,-0.008691954,-0.001063774,-5.035616958,4.497547978,2.009300959,1163.746438,1126.646723,1108.574394,1119.069824,-529.8829501,685.6073264,357.0619152,-169.9983809,158.4720063
2.9175,-0.394908941,0.628635057,-0.93421647,-0.043504665,0.033046595,-0.008714418,0.00350544,-0.004656447,0.093272175,0.995619157,-0.063057992,-0.016846784,9.754772738,0.003238562,-0.008792008,-0.001196642,-5.035607561,4.497527288,2.009302561,1162.06172,1128.210944,1109.430233,1118.582144,-863.1137573,574.2765798,338.7221402,-215.2212351,158.4719427
2.92,-0.439450246,0.444802022,-0.891299845,-0.044300858,0.035777619,-0.012506027,0.003478946,-0.0046122,0.093279964,0.995620452,-0.064761598,-0.019229528,9.753610793,0.003048325,-0.008895798,-0.001341968,-5.035598035,4.497505163,2.009302977,1159.43087,1129.518106,1110.268005,1117.993718,-1020.835625,368.7351222,271.8581326,-193.8573554,158.471817
2.9225,-0.458416412,0.231566156,-0.810283035,-0.04519266,0.037976735,-0.014823482,0.003444934,-0.004563177,0.09327825,0.995622237,-0.066287565,-0.021362133,9.752746347,0.002861243,-0.008999346,-0.001499097,-5.03558877,4.497482264,2.009301815,1156.957542,1130.054619,1110.789523,1117.612857,-990.4103021,105.0260968,183.9302883,-107.0130613,158.4716754
2.925,-0.442467527,-0.017193351,-0.716845737,-0.046732091,0.039106668,-0.01598925,0.003403684,-0.004511321,0.093268832,0.995624381,-0.067595794,-0.023246604,9.752216916,0.002676907,-0.009098912,-0.001666897,-5.035579757,4.497458174,2.009299178,1154.478818,1130.043237,1111.187656,1117.458653,-954.1475188,-74.76149276,157.2612236,-13.62949363,158.4715002
2.9275,-0.38688489,-0.260709261,-0.637165208,-0.048665464,0.038593452,-0.016298963,0.00335515,-0.004465109,0.093252416,0.99562685,-0.068519607,-0.024913773,9.75205671,0.0024945,-0.009191122,-0.001843963,-5.035570701,4.497432217,2.009296158,1152.186804,1129.680812,1111.575829,1117.54471,-837.1563018,-190.5207738,178.0653401,94.56281291,158.4712999
2.93,-0.281189971,-0.450930961,-0.588018827,-0.05048707,0.036256068,-0.016242213,0.003300578,-0.004430921,0.09323198,0.995629407,-0.068929848,-0.026374814,9.75229542,0.002312778,-0.009273175,-0.002028593,-5.035561097,4.497404481,2.009292945,1150.293037,1129.090633,1112.077983,1117.931467,-714.8311273,-256.8701994,270.8851692,229.4716978,158.4710722
2.9325,-0.112831254,-0.574997395,-0.554273465,-0.05166783,0.032631378,-0.017159418,0.003241776,-0.0044148,0.093207986,0.995632048,-0.068701994,-0.027637196,9.752956963,0.002130225,-0.00934306,-0.002218808,-5.03555008,4.497375423,2.009289695,1148.612649,1128.396461,1112.930255,1118.692068,-511.2398745,-217.6809697,358.5001813,314.047018,158.4707699
2.935,0.039115071,-0.583586476,-0.52470534,-0.051480374,0.029747382,-0.019099215,0.003185538,-0.004416738,0.093185479,0.995634337,-0.067818908,-0.028606022,9.754058143,0.00194513,-0.009399829,-0.002412178,-5.03553701,4.497346992,2.009286436,1147.736837,1128.002228,1113.870484,1119.501702,-246.8005903,-94.95423165,410.6628198,340.0808101,158.4704953
2.9375,0.173897976,-0.512045104,-0.467211357,-0.050569211,0.027615214,-0.021394441,0.003136277,-0.004428887,0.093165568,0.995636239,-0.066419819,-0.029222343,9.755608416,0.001756081,-0.009443591,-0.002605908,-5.035522558,4.497320141,2.009282446,1147.378646,1127.92169,1114.983569,1120.392472,-55.22652135,40.01896559,494.7770715,387.9945665,158.4701982
2.94,0.291724882,-0.379345923,-0.353814976,-0.049116327,0.026456401,-0.02372485,0.003092918,-0.004442729,0.09314805,0.99563785,-0.064667573,-0.029534502,9.757609288,0.001562229,-0.009475388,-0.002796939,-5.035508166,4.497295041,2.009277063,1147.460705,1128.202323,1116.344369,1121.441675,98.77188861,153.2780413,470.6696861,367.1995722,158.469817
2.9425,0.344855838,-0.268205167,-0.228181037,-0.047506769,0.026656891,-0.025084144,0.003054809,-0.004455306,0.093137819,0.995638753,-0.06261781,-0.029592419,9.760053228,0.001363356,-0.009496987,-0.002981956,-5.035494117,4.497271851,2.009270357,1147.872505,1128.68808,1117.336918,1122.22847,214.0315574,221.2386025,329.9171496,283.396363,158.4694791
2.945,0.353751606,-0.192969646,-0.090765874,-0.045806722,0.027411361,-0.025544204,0.003022407,-0.004461533,0.093135999,0.995638882,-0.060368654,-0.029419344,9.762923785,0.001160192,-0.009510572,-0.003157466,-5.035480681,4.497250168,2.009262037,1148.530862,1129.308516,1117.993955,1122.858656,287.1388926,248.981583,185.8595184,219.4793199,158.4691206
2.9475,0.338771975,-0.160466827,0.035923423,-0.044727489,0.02807119,-0.025143371,0.002999793,-0.004458104,0.093139543,0.995638537,-0.057981737,-0.028968767,9.766195496,0.000954442,-0.009518494,-0.003319936,-5.035468451,4.497229447,2.00925191,1149.3082,1129.932988,1118.266215,1123.325867,319.6278911,226.7592889,4.68121835,143.293751,158.468745
2.95,0.318711265,-0.176976844,0.127893064,-0.044565049,0.02823299,-0.024023401,0.002990195,-0.00444778,0.0931478,0.995637763,-0.055408061,-0.028218089,9.769834582,0.000748597,-0.009523027,-0.003466072,-5.035458271,4.497209869,2.00924033,1150.129002,1130.442312,1118.017361,1123.575125,350.0073581,173.7234498,-222.6579455,57.76012201,158.4683486
2.9525,0.314620638,-0.23464213,0.184244738,-0.044579904,0.027676856,-0.022630442,0.002990383,-0.00442753,0.093158492,0.995636795,-0.052730021,-0.027255996,9.773800951,0.00054594,-0.009526109,-0.003593082,-5.03545143,4.497191072,2.009226638,1151.058237,1130.801605,1117.152926,1123.614667,322.1537124,79.99819761,-389.9400038,-27.01198653,158.4678481
2.955,0.336823217,-0.296351601,0.188121631,-0.044394317,0.026677982,-0.021807438,0.002994773,-0.004392424,0.093167736,0.995636034,-0.050079302,-0.026209721,9.77804911,0.000350216,-0.009529157,-0.003698835,-5.035448325,4.497171994,2.009210767,1151.73977,1130.842303,1116.067661,1123.440065,251.2288773,-39.09547153,-468.6869373,-106.6384916,158.4674095
2.9575,0.384739528,-0.353926509,0.159355053,-0.043955473,0.025482885,-0.021418867,0.00300001,-0.004346579,0.0931749,0.995635524,-0.047415636,-0.025175966,9.78252865,0.000165029,-0.009532965,-0.003782067,-5.035447343,4.497152314,2.00919387,1152.314381,1130.606128,1114.809491,1123.081475,235.1568216,-159.8699986,-534.5414274,-187.3049765,158.4669476
2.96,0.460000534,-0.405291937,0.104872835,-0.042981417,0.024177061,-0.021236186,0.003007121,-0.004296658,0.093179177,0.995635305,-0.044649163,-0.024167529,9.787185996,-6.41E-06,-0.009537697,-0.00384249,-5.035447153,4.497131443,2.009177361,1152.915555,1130.042953,1113.394954,1122.50354,214.5777141,-243.7559457,-459.7206389,-224.165511,158.4663646
2.9625,0.524314428,-0.428077943,0.054383991,-0.041659729,0.023201027,-0.021133338,0.003016358,-0.004248872,0.093178883,0.995635504,-0.041707759,-0.023208667,9.791966767,-0.000161452,-0.00954296,-0.003880894,-5.035446846,4.497108274,2.009162884,1153.38727,1129.387348,1112.510888,1121.960647,194.8223037,-288.7211465,-250.0437654,-213.7057584,158.4658533
2.965,0.574188882,-0.425142749,0.010118825,-0.039903904,0.02223983,-0.021019907,0.003027741,-0.00420671,0.093176898,0.995635833,-0.038579169,-0.022320856,9.79681758,-0.000298101,-0.009548047,-0.003898932,-5.035446231,4.497083206,2.009150765,1153.889666,1128.599347,1112.144735,1121.435012,215.1365493,-328.5776177,-40.74825224,-195.3840499,158.4653135
2.9675,0.60360573,-0.396721977,-0.020843158,-0.038049538,0.021286448,-0.020990953,0.003041091,-0.0041725,0.093179619,0.995635687,-0.035279476,-0.021525298,9.801687404,-0.000415011,-0.009552225,-0.003898795,-5.035445149,4.497057169,2.009140671,1154.462952,1127.74446,1112.307146,1120.983727,255.7803867,-349.5989454,197.8319796,-149.8418535,158.4647485
2.97,0.604869611,-0.331802508,-0.02539669,-0.036219489,0.020308256,-0.021218979,0.003057072,-0.004151329,0.093188464,0.995634908,-0.03177359,-0.020830002,9.806528207,-0.000511258,-0.009554967,-0.003882854,-5.035443506,4.497031234,2.009132423,1155.168568,1126.851353,1113.133895,1120.685802,347.9293186,-393.9902447,499.7768233,-85.55103287,158.4641504
2.9725,0.577404131,-0.205130381,0.01147385,-0.034254512,0.019201521,-0.021834002,0.003074402,-0.004139324,0.09319919,0.995633911,-0.028207566,-0.020262506,9.811297145,-0.000586139,-0.009556032,-0.003853403,-5.03544221,4.497005827,2.009125694,1156.202599,1125.774509,1114.806031,1120.555972,408.9769733,-391.5013378,698.0795906,-10.43698006,158.4633914
2.975,0.537332392,-0.056821437,0.081389726,-0.032963945,0.018446189,-0.022514161,0.003091521,-0.004130317,0.093208961,0.995632988,-0.024773711,-0.019849462,9.815956375,-0.000639307,-0.009555425,-0.003812383,-5.035441653,4.496981074,2.00912004,1157.213453,1124.893846,1116.624293,1120.633617,423.8491416,-343.3883442,768.6840546,56.64520445,158.4627218
2.9775,0.489213284,0.13253286,0.185885231,-0.031839316,0.01809512,-0.023000868,0.003104655,-0.00412183,0.093216715,0.995632257,-0.021595228,-0.01966545,9.820472729,-0.000670843,-0.009553288,-0.003761235,-5.035441647,4.496956349,2.00911475,1158.321845,1124.057567,1118.649451,1120.839198,443.9990446,-321.3795943,805.0447503,86.39554488,158.4620108
2.98,0.440856542,0.347907754,0.304386661,-0.030796209,0.018349768,-0.023018694,0.003111237,-0.004110906,0.093220696,0.995631906,-0.018799501,-0.019758116,9.824817646,-0.000681246,-0.00954987,-0.003700741,-5.035441875,4.496931171,2.00910868,1159.433448,1123.286948,1120.649517,1121.065595,421.1637517,-282.1458977,749.7369686,72.14349574,158.4612637
2.9825,0.398659653,0.579272185,0.411306853,-0.029882947,0.019429893,-0.022313229,0.003111941,-0.004094454,0.093220776,0.99563196,-0.016505416,-0.020108891,9.828966677,-0.000671523,-0.009545544,-0.003631046,-5.0354417,4.496906139,2.009100471,1160.427663,1122.646837,1122.398136,1121.199915,377.8768866,-233.3700197,668.9981547,13.07519589,158.4604714
2.985,0.361877728,0.852456602,0.482639235,-0.028880176,0.021535399,-0.020511593,0.003108464,-0.00407539,0.093212915,0.995632781,-0.014705477,-0.020686974,9.832898652,-0.000643121,-0.009540807,-0.003551931,-5.035441428,4.496881514,2.009090587,1161.322832,1122.120098,1123.994507,1121.130971,258.4220109,-136.8010857,485.8632828,-72.79091174,158.4594671
2.9875,0.346572165,1.059571304,0.46461431,-0.028099401,0.02385845,-0.018179761,0.003103381,-0.004054089,0.093191354,0.995634902,-0.013431029,-0.021436348,9.836596616,-0.000597891,-0.009536257,-0.003463123,-5.035441923,4.496857418,2.009079109,1161.719773,1121.962832,1124.827452,1120.835961,71.98811976,15.31580074,228.7494707,-163.8582859,158.458585
2.99,0.350527765,1.226101203,0.34417614,-0.027490487,0.026531756,-0.015298524,0.00309597,-0.004029496,0.09315925,0.99563803,-0.012736074,-0.022360035,9.840048136,-0.000538329,-0.009532468,-0.003364652,-5.035442584,4.496833878,2.009066826,1161.682773,1122.196677,1125.138255,1120.31168,-115.5022831,210.6645249,29.81715537,-261.2932062,158.4576562
2.9925,0.378139433,1.356312487,0.088978358,-0.027170106,0.030029117,-0.012321851,0.003082352,-0.004003922,0.093118432,0.995641994,-0.012601736,-0.023525486,9.84324467,-0.000467482,-0.00952993,-0.003257062,-5.035443134,4.496810422,2.009055006,1161.142262,1123.016155,1124.976538,1119.529495,-267.1674024,394.9262405,-135.2830579,-287.3608163,158.4564882
2.995,0.414719421,1.388210447,-0.18260519,-0.026993009,0.033388267,-0.011451269,0.003060499,-0.003976889,0.093069785,0.995646719,-0.013046116,-0.024955089,9.846182005,-0.000388945,-0.009529043,-0.003141382,-5.035443986,4.496786086,2.009044045,1160.346936,1124.171308,1124.461839,1118.874876,-360.0946928,552.9100698,-272.3066252,-230.5693633,158.4554714
2.9975,0.447300696,1.317449741,-0.451141167,-0.026160025,0.037465291,-0.013146358,0.003035219,-0.003949739,0.093017358,0.995651805,-0.014023564,-0.026536862,9.848859285,-0.000307019,-0.009530204,-0.003018989,-5.035444324,4.496760487,2.009034063,1159.341789,1125.780705,1123.615005,1118.376648,-407.6757002,703.7626044,-388.0999049,-153.8995484,158.4544114
3,0.456509994,1.149459391,-0.6676123,-0.02453004,0.041994003,-0.016549569,0.003012492,-0.003926791,0.092966876,0.995656681,-0.015411645,-0.028137181,9.851279524,-0.000226703,-0.009533927,-0.002891617,-5.035442785,4.496733567,2.009025513,1158.308558,1127.690121,1122.52134,1118.105378,-381.6980769,807.1244146,-490.4333533,-40.69202384,158.453317
3.0025,0.415964394,0.867868054,-0.784065032,-0.02242109,0.046144154,-0.020423144,0.002998463,-0.003910065,0.092924368,0.995660758,-0.017116245,-0.029610711,9.853450354,-0.000153514,-0.009541058,-0.00276123,-5.035438553,4.496706154,2.009018708,1157.433298,1129.816327,1121.162838,1118.173188,-304.4569799,940.041983,-642.6372714,109.4338716,158.4521831
3.005,0.298606397,0.436104591,-0.801673163,-0.02001525,0.049298995,-0.024079528,0.002994991,-0.003903727,0.092891325,0.995663876,-0.01899294,-0.030895604,9.855383472,-9.31E-05,-0.009552935,-0.002629918,-5.03543195,4.49667913,2.009013836,1156.786273,1132.390331,1119.308154,1118.652547,-148.3877382,913.3776191,-696.3439138,231.9130168,158.4507794
3.0075,0.151127801,0.045440462,-0.732892412,-0.018593747,0.049995103,-0.026067468,0.00299961,-0.003914432,0.092870286,0.995665781,-0.020841179,-0.032015483,9.857094008,-5.12E-05,-0.009571462,-0.002499664,-5.035423388,4.496653275,2.009010886,1156.691359,1134.383215,1117.681118,1119.332753,61.01914521,730.2190037,-632.8186881,307.6950342,158.4495762
3.01,-0.021939374,-0.311315441,-0.609991451,-0.01835135,0.048870935,-0.027228042,0.003012275,-0.003940414,0.092865093,0.995666118,-0.022607786,-0.032927542,9.858600487,-3.29E-05,-0.009599081,-0.002371972,-5.035413433,4.496629864,2.009008815,1157.091368,1136.041426,1116.14406,1120.191022,271.9040091,624.394229,-611.6720096,386.2208785,158.4483409
3.0125,-0.21890219,-0.631145547,-0.434578184,-0.019466005,0.045841022,-0.028167813,0.003033163,-0.003977607,0.092876009,0.995664878,-0.024273431,-0.033577407,9.859923175,-4.26E-05,-0.009638525,-0.002247746,-5.035402391,4.496609348,2.009007214,1158.05088,1137.505186,1114.622758,1121.263857,403.4017078,440.3930002,-477.891601,378.5149121,158.446825
3.015,-0.348591687,-0.772349151,-0.283866936,-0.02106939,0.042393242,-0.028671317,0.003063716,-0.004022315,0.092902286,0.995662143,-0.025801217,-0.033884955,9.861082567,-8.36E-05,-0.009692439,-0.002127214,-5.035390292,4.496592106,2.009006327,1159.108377,1138.243391,1113.754602,1122.083597,432.2611141,200.9737621,-248.5984013,294.544538,158.4455367
3.0175,-0.425587869,-0.768376801,-0.14352044,-0.022722668,0.038914018,-0.028793266,0.003106293,-0.004066086,0.092942862,0.995658039,-0.027241637,-0.033743536,9.862098872,-0.000158158,-0.009762936,-0.002009899,-5.035377083,4.49657795,2.009004627,1160.212185,1138.510055,1113.379766,1122.73658,414.9438779,44.29257141,-70.63214093,228.9989761,158.4442257
3.02,-0.45685937,-0.654402696,-0.01818951,-0.024266539,0.036036039,-0.02862194,0.003155562,-0.004101717,0.092990855,0.995653255,-0.028634447,-0.033201773,9.862990927,-0.000266715,-0.009851098,-0.001894874,-5.035363888,4.496565552,2.009001234,1161.183096,1138.464854,1113.401441,1123.228592,323.3711549,-64.82437522,85.2749435,163.3642466,158.4428987
3.0225,-0.439860939,-0.441563474,0.087062705,-0.02564316,0.034241139,-0.02827701,0.003204432,-0.004126407,0.093038881,0.995648513,-0.029940146,-0.032355803,9.863774612,-0.000408132,-0.009956647,-0.001780887,-5.035352053,4.496553324,2.008996346,1161.829041,1138.185933,1113.806141,1123.553401,189.0235155,-139.0949037,228.4333383,120.1062761,158.4415561
3.025,-0.380046572,-0.130788439,0.193573029,-0.027044054,0.033403682,-0.02794623,0.003251338,-0.004138886,0.093083178,0.995644175,-0.031087277,-0.031203322,9.864462064,-0.000579698,-0.01007777,-0.001666489,-5.035341673,4.496540315,2.008990154,1162.128214,1137.769379,1114.543608,1123.829123,36.94480824,-145.3197881,280.5725593,94.6167443,158.4399317
3.0275,-0.312730011,0.127771925,0.26963334,-0.027887461,0.033834554,-0.027780892,0.003294768,-0.004139535,0.093116248,0.995640946,-0.031984334,-0.029753738,9.865061792,-0.000777146,-0.01021107,-0.001550393,-5.035333303,4.49652486,2.008983679,1162.013765,1137.459334,1115.209004,1124.026485,-88.4760493,-103.2803785,241.6696373,81.71381302,158.4385707
3.03,-0.247123604,0.334420178,0.333261713,-0.028247437,0.035321043,-0.027429005,0.003330573,-0.004131061,0.093131984,0.995639401,-0.032515292,-0.028084529,9.865578785,-0.000995011,-0.01035173,-0.001431674,-5.035327394,4.496504747,2.008978509,1161.685834,1137.252978,1115.751956,1124.237692,-135.3673972,-65.26229805,181.866272,96.81710507,158.4372069
3.0325,-0.190102958,0.477580221,0.388102808,-0.028250503,0.038188794,-0.026438049,0.003357765,-0.004115113,0.09313462,0.99563914,-0.032598465,-0.026222936,9.866014516,-0.001227151,-0.010493913,-0.001309624,-5.035323153,4.496480426,2.00897414,1161.336928,1137.133023,1116.118335,1124.510571,-77.14036937,-26.58049694,77.60974002,98.31303781,158.4355729
3.035,-0.169175885,0.493368579,0.407676154,-0.028103922,0.040987934,-0.025165606,0.00337535,-0.004094058,0.093127803,0.995639815,-0.032160092,-0.024212236,9.866367295,-0.00146688,-0.010631297,-0.001183715,-5.035319656,4.496451761,2.008970044,1161.300132,1137.120075,1116.140005,1124.729257,75.04132344,7.330745957,-46.06876156,77.4609638,158.4342178
3.0375,-0.176654216,0.408106633,0.392724563,-0.028004634,0.043111059,-0.023693217,0.003383105,-0.004073558,0.093111188,0.995641435,-0.031084288,-0.022101386,9.866632328,-0.001707116,-0.010757664,-0.001053523,-5.035316568,4.496418578,2.008966367,1161.712135,1137.169677,1115.887991,1124.897875,248.0383567,27.21687082,-133.5608131,54.27156258,158.4328751
3.04,-0.201314964,0.261200498,0.34871698,-0.028160851,0.044218905,-0.022271977,0.003386049,-0.004053744,0.093088007,0.995643679,-0.029378937,-0.019840552,9.866802611,-0.001940662,-0.010867467,-0.000918621,-5.035314278,4.496382521,2.008963054,1162.540324,1137.256159,1115.472201,1125.000615,415.7227196,40.85446222,-183.8807853,23.56750473,158.4315469
3.0425,-0.23292825,0.076965831,0.277076022,-0.028841574,0.04432714,-0.021222294,0.003387554,-0.004029962,0.093060674,0.995646325,-0.027173899,-0.017416434,9.866870126,-0.002160234,-0.010956302,-0.000778722,-5.035313464,4.496345243,2.008959909,1163.790748,1137.373949,1114.968587,1125.015713,598.6532642,54.88255121,-212.9932323,-8.197503385,158.4302419
3.045,-0.260423029,-0.140353862,0.176642985,-0.030136974,0.043602283,-0.020570078,0.003386598,-0.003997897,0.093031679,0.995649162,-0.024624616,-0.014913595,9.866826415,-0.002358635,-0.011021134,-0.000633749,-5.035314592,4.496308563,2.008956771,1165.53359,1137.530572,1114.407235,1124.959628,631.3946905,55.68608229,-182.3608409,-23.17010658,158.4287101
3.0475,-0.265854207,-0.289815366,0.095811719,-0.031272477,0.042244278,-0.020519844,0.003379657,-0.003950419,0.092999209,0.995652399,-0.021969064,-0.012468804,9.866663625,-0.002528846,-0.011060308,-0.000483845,-5.035318456,4.496272793,2.008953105,1166.947722,1137.652379,1114.056783,1124.899862,499.3860681,40.67629166,-106.3732783,-10.13327551,158.4274677
3.05,-0.251225313,-0.384352318,0.033250845,-0.032284929,0.040212079,-0.020874824,0.003364843,-0.003883423,0.092962488,0.995656133,-0.019402588,-0.010197698,9.866374207,-0.002664414,-0.011073357,-0.000329362,-5.035325355,4.496237683,2.008948545,1168.03052,1137.733954,1113.875368,1124.908961,346.3867414,18.91929137,-41.54852162,39.19021602,158.4262678
3.0525,-0.217859642,-0.43085126,-0.011388383,-0.033141929,0.037749574,-0.021539906,0.003342408,-0.003802512,0.092923673,0.995660137,-0.016942082,-0.008194282,9.865950677,-0.002759832,-0.01106077,-0.000170959,-5.035334945,4.496203255,2.008944053,1168.679655,1137.746976,1113.849041,1125.095813,107.4580261,-14.88282307,17.8165084,107.0556106,158.4248856
3.055,-0.18619184,-0.427648145,-0.024144019,-0.033470357,0.036303932,-0.022018639,0.00331516,-0.003717784,0.092884749,0.995664179,-0.014523499,-0.006509912,9.865386722,-0.002810819,-0.011023817,-9.71E-06,-5.035347199,4.496169222,2.008940726,1168.56781,1137.659539,1113.964451,1125.444239,-183.1478396,-60.93513613,69.7639871,179.8522167,158.4237881
3.0575,-0.161473872,-0.409873125,-0.0211484,-0.033430911,0.035867993,-0.022022075,0.003282936,-0.003641334,0.092847021,0.99566809,-0.012056178,-0.00525434,9.864678838,-0.002814652,-0.010964406,0.000152801,-5.03536131,4.496135106,2.008939639,1167.763916,1137.4423,1114.197861,1125.995074,-421.3111535,-109.8222161,110.7844646,245.5423215,158.4227546
3.06,-0.14705173,-0.401427056,-0.015062543,-0.033196941,0.036177134,-0.0216322,0.003244868,-0.003576427,0.092809021,0.995671996,-0.00962601,-0.004528221,9.863828087,-0.002770431,-0.010885018,0.000314664,-5.035376466,4.496100904,2.008940498,1166.461255,1137.110428,1114.518373,1126.671951,-605.2481447,-154.949501,147.3117521,283.2913176,158.421779
3.0625,-0.142502706,-0.416009684,-0.013614522,-0.033195658,0.03656746,-0.021131827,0.003201472,-0.003523425,0.092770163,0.995675945,-0.007369242,-0.004390668,9.862839511,-0.002679383,-0.010788669,0.000473952,-5.035391665,4.496067205,2.008942851,1164.737675,1136.667553,1114.934419,1127.411531,-792.3965209,-202.3417956,200.7548576,313.7643396,158.4208784
3.065,-0.136179346,-0.449192662,-0.018294015,-0.033912161,0.035754906,-0.02074785,0.003153235,-0.003482179,0.092731678,0.995679824,-0.00542188,-0.004889043,9.861722147,-0.002544978,-0.010678875,0.000628901,-5.035405986,4.496034513,2.008946535,1162.499272,1136.098719,1115.522148,1128.240773,-796.7954611,-195.9813669,224.177131,277.640301,158.4198897
3.0675,-0.120715529,-0.469650583,-0.021924295,-0.034957958,0.033878428,-0.02072952,0.003105435,-0.003451696,0.09269787,0.99568322,-0.003911877,-0.00596192,9.860488342,-0.002372897,-0.010559585,0.000778163,-5.035418296,4.496002937,2.008950602,1160.753698,1135.687646,1116.055305,1128.799733,-612.9420217,-129.5306018,211.6516412,183.2004805,158.4191456
3.07,-0.091898355,-0.462012936,-0.014990839,-0.035931229,0.031810442,-0.021057444,0.003062421,-0.003430493,0.092669388,0.995686066,-0.002957794,-0.007549859,9.859154248,-0.002170694,-0.010435147,0.000920747,-5.035427886,4.495972531,2.008954602,1159.434562,1135.451066,1116.580406,1129.156775,-426.3304513,-49.42353838,215.8132201,105.9578924,158.4184872
3.0725,-0.054078184,-0.414561188,0.015107497,-0.036461314,0.0299809,-0.021749296,0.00302392,-0.00341869,0.09264762,0.995688238,-0.002629801,-0.009670767,9.857739559,-0.001947566,-0.010310221,0.001055922,-5.03543456,4.495943894,2.00895853,1158.622046,1135.440528,1117.134371,1129.329522,-146.6469472,40.44145841,183.0413035,23.8623196,158.4177982
3.075,-0.035844568,-0.348934526,0.059180375,-0.036204797,0.02904348,-0.022369739,0.002991376,-0.00341231,0.09263621,0.995689407,-0.003046529,-0.012284443,9.856266955,-0.001714007,-0.010189669,0.001183269,-5.035438073,4.495917704,2.008961626,1158.701327,1135.653274,1117.495612,1129.276087,187.1440488,115.5938255,120.1643715,-53.1905697,158.417309
3.0775,-0.049610488,-0.267226858,0.113153688,-0.035432874,0.028620028,-0.022566968,0.002966356,-0.003411663,0.092634967,0.995689589,-0.004211567,-0.015338372,9.854760382,-0.001481217,-0.010078402,0.001302551,-5.035437735,4.4958936,2.008964566,1159.557766,1136.018497,1117.735193,1129.063569,446.6661552,152.1886799,76.97440648,-102.5725315,158.416908
3.08,-0.09605593,-0.178799566,0.160712474,-0.034549856,0.028453189,-0.022004229,0.002949318,-0.00341983,0.092644355,0.995688731,-0.006044278,-0.018789722,9.853244767,-0.001260673,-0.009981176,0.001413559,-5.035432296,4.495871392,2.008968156,1160.934658,1136.414217,1117.880484,1128.763224,622.3867296,139.0779432,39.45559812,-131.3635919,158.4165798
3.0825,-0.17459952,-0.085082114,0.181743875,-0.033940063,0.028354545,-0.020589806,0.002944021,-0.00343259,0.092666169,0.995686673,-0.008570075,-0.022501437,9.851746353,-0.001063521,-0.009902433,0.001516179,-5.035421392,4.495851365,2.008972206,1162.6697,1136.713887,1117.932471,1128.406751,761.5094483,79.26762622,6.167471532,-161.1760181,158.4163382
3.085,-0.27707191,0.035460251,0.165190617,-0.034098531,0.028226562,-0.018898378,0.002949787,-0.003448948,0.092698474,0.995683597,-0.011730019,-0.026414035,9.850291171,-0.000899697,-0.009846207,0.001610275,-5.035406209,4.49583316,2.008977141,1164.742205,1136.810555,1117.911322,1127.957344,698.4109851,-23.1938874,-19.56995822,-165.6065855,158.4161467
3.0875,-0.338560172,0.145240526,0.122700006,-0.035270976,0.028188395,-0.018216311,0.00296412,-0.003472726,0.092741755,0.995679452,-0.015347806,-0.0304996,9.848903683,-0.000777333,-0.009815968,0.001695816,-5.035388138,4.495816547,2.008983619,1166.161755,1136.597917,1117.834621,1127.578718,449.3834386,-151.4301915,-41.81852765,-150.6981687,158.4160674
3.09,-0.338891995,0.265304516,0.069026424,-0.037335731,0.028282215,-0.018325808,0.002983959,-0.003498398,0.092795453,0.995674313,-0.019409969,-0.034713138,9.847607747,-0.000702219,-0.009814482,0.001773032,-5.03536984,4.49580117,2.008990997,1166.989122,1136.053404,1117.702229,1127.203853,196.9459245,-306.6281978,-70.63569954,-159.1775764,158.4160686
3.0925,-0.244447968,0.414992285,0.013342574,-0.039921894,0.028703018,-0.018841852,0.003004382,-0.003520936,0.092854319,0.995668699,-0.023880192,-0.039038506,9.846424322,-0.000677482,-0.009843674,0.001842531,-5.035353727,4.495785356,2.008998964,1167.146484,1135.064776,1117.481443,1126.78283,-78.88159608,-402.3955309,-91.46385776,-142.1064552,158.4161598
3.095,-0.088346908,0.533549535,-0.016112561,-0.041478325,0.029488564,-0.019318349,0.003022909,-0.00353955,0.092913234,0.995663092,-0.028623627,-0.043414172,9.845369933,-0.000703805,-0.009904534,0.001905471,-5.03534021,4.495768146,2.009007482,1166.594714,1134.041427,1117.24491,1126.493321,-333.2096227,-424.5049067,-107.3036184,-91.36384634,158.4163074
3.0975,0.124165698,0.625927826,-0.025003804,-0.042146552,0.030827902,-0.019680214,0.003042713,-0.003553201,0.092972695,0.995657439,-0.033495177,-0.047665346,9.844456609,-0.000779898,-0.009997138,0.001963674,-5.035328242,4.495750185,2.009015382,1165.480436,1132.942252,1116.944925,1126.326011,-503.2214197,-429.5281038,-133.6687596,-38.62406455,158.4165254
3.1,0.353430987,0.679071198,-0.01976375,-0.041945291,0.03268269,-0.019901698,0.003064309,-0.003561942,0.093031539,0.995651844,-0.038334156,-0.051672009,9.843691885,-0.000902688,-0.010120756,0.002019419,-5.035318222,4.495731676,2.009021312,1164.078607,1131.893786,1116.576566,1126.300201,-579.4046814,-379.2579251,-169.0603873,29.44877226,158.4167991
3.1025,0.558512476,0.665607339,-0.004702774,-0.040272768,0.035111117,-0.019942306,0.003085437,-0.003568747,0.093090628,0.995646222,-0.042934286,-0.055377866,9.843078387,-0.001067654,-0.010273872,0.002075226,-5.03530982,4.495712601,2.009024886,1162.583413,1131.045962,1116.099623,1126.473255,-616.5433948,-295.8505093,-238.5605028,121.4097514,158.4171368
3.105,0.722688325,0.55915649,0.013874002,-0.036768131,0.038244514,-0.019786736,0.003104971,-0.003572966,0.093151146,0.99564047,-0.047169791,-0.058704547,9.842614367,-0.001269057,-0.010454151,0.002133584,-5.035302877,4.495693533,2.009025578,1160.99589,1130.414534,1115.383763,1126.907249,-510.3835466,-152.991276,-281.9885294,189.3526541,158.4176126
3.1075,0.765774683,0.399421462,0.022627983,-0.033350767,0.040532733,-0.019500413,0.003121459,-0.003571841,0.093207211,0.995635154,-0.050972245,-0.061585842,9.84229398,-0.001499981,-0.01065841,0.002196506,-5.03529853,4.495674049,2.009023768,1160.031495,1130.281006,1114.68968,1127.420018,-283.7065958,30.62772334,-279.6739075,219.7284645,158.4180657
3.11,0.706848175,0.190076238,0.018991824,-0.030335796,0.041905087,-0.019098341,0.003132139,-0.003567267,0.093252603,0.995630859,-0.054203453,-0.064002134,9.842107547,-0.00175269,-0.010882552,0.002265089,-5.035296931,4.495652593,2.00902123,1159.577357,1130.567672,1113.985394,1128.005892,-75.34194019,206.4445019,-275.5327128,249.7774947,158.4185752
3.1125,0.543394556,-0.07143908,0.000432534,-0.027857247,0.041990142,-0.018627731,0.003136519,-0.003559555,0.093284486,0.995627855,-0.05677394,-0.065900711,9.842042956,-0.002019075,-0.011121565,0.002339341,-5.035298417,4.495628691,2.009019324,1159.654785,1131.313228,1113.312016,1128.668906,120.0663227,317.0626039,-186.7766108,219.0086505,158.4192496
3.115,0.361168513,-0.259217191,-0.021613227,-0.026993485,0.040527951,-0.018454322,0.003132592,-0.003546396,0.093299946,0.995626437,-0.05867168,-0.067269735,9.842086709,-0.002291004,-0.011369707,0.002418045,-5.035302945,4.495601338,2.009019045,1160.177689,1132.152985,1113.051511,1129.100935,274.2093667,345.7866714,-9.982007244,132.6149735,158.4198628
3.1175,0.171030339,-0.379369355,-0.039454989,-0.027147911,0.038010992,-0.018693316,0.003118977,-0.003529205,0.093295329,0.995626955,-0.059834466,-0.068108824,9.842224369,-0.00256072,-0.011620776,0.002498986,-5.035310159,4.495569595,2.009022145,1161.025832,1133.042162,1113.262106,1129.331981,364.0530843,335.9821887,173.6383784,53.79237286,158.4205276
3.12,-0.001987224,-0.433775327,-0.045111611,-0.027754147,0.035575486,-0.019123909,0.003105413,-0.003510323,0.093275397,0.995628924,-0.06018573,-0.068218535,9.842441284,-0.00282148,-0.011868407,0.002579566,-5.035318306,4.495534194,2.00902936,1161.997954,1133.832896,1113.919703,1129.369897,383.2521547,263.2621008,362.2970441,-29.61458766,158.4212343
3.1225,-0.137906942,-0.42144756,-0.029263843,-0.028479123,0.034038308,-0.019569634,0.003098858,-0.003488916,0.093244132,0.995631951,-0.059738857,-0.067464974,9.842722885,-0.003067659,-0.012106613,0.002657016,-5.035326396,4.495495621,2.009040724,1162.942093,1134.358472,1115.073592,1129.183908,371.7356872,144.3602353,582.7665689,-121.4058033,158.4219902
3.125,-0.250028932,-0.363894219,0.016585361,-0.029218346,0.033400912,-0.019975776,0.003096758,-0.003467123,0.0932043,0.995635775,-0.058487203,-0.065922254,9.84305392,-0.003294789,-0.012330246,0.00272884,-5.035333908,4.495454059,2.009055765,1163.856633,1134.554697,1116.833536,1128.762868,282.042241,-7.603010494,663.6397889,-173.2185532,158.4229524
3.1275,-0.29993571,-0.30600315,0.073767076,-0.029702593,0.033559264,-0.020149198,0.003097058,-0.00344213,0.093164473,0.995639604,-0.056539161,-0.063660183,9.843418074,-0.003499717,-0.01253527,0.002793576,-5.035340826,4.495411031,2.009072438,1164.352304,1134.320457,1118.391791,1128.317815,136.7628159,-169.6321448,583.8962548,-178.3427919,158.4237988
3.13,-0.303080141,-0.256481574,0.141583712,-0.030138198,0.034012087,-0.020091909,0.003099093,-0.003410057,0.093130144,0.995642937,-0.054037223,-0.060732193,9.843796719,-0.003680254,-0.012719062,0.00285119,-5.035347159,4.49536861,2.009088538,1164.540447,1133.706537,1119.753017,1127.871154,20.16792974,-332.0538154,496.770242,-176.1339531,158.4246897
3.1325,-0.24599118,-0.206045781,0.219620844,-0.03076026,0.034371824,-0.019670401,0.003103141,-0.003370635,0.093106466,0.995645291,-0.051064552,-0.05719053,9.844167428,-0.003835054,-0.012880401,0.002903169,-5.035352813,4.495328364,2.009103185,1164.453144,1132.660188,1120.875642,1127.437145,-70.31295239,-407.4989233,302.5191791,-130.3639995,158.425808
3.135,-0.139505209,-0.156765501,0.268389213,-0.03145373,0.033904775,-0.018958587,0.003108518,-0.003318123,0.093093708,0.995646662,-0.04782357,-0.053104596,9.844503482,-0.003963349,-0.013019272,0.002952263,-5.03535874,4.495290265,2.009115533,1164.188882,1131.669042,1121.265613,1127.219334,-123.2930243,-383.905604,39.89577625,-49.90651602,158.4267794
3.1375,0.037383018,-0.075263333,0.284674412,-0.032335615,0.03260013,-0.017841715,0.003116729,-0.003248967,0.09309067,0.995647169,-0.044477704,-0.048511104,9.844772547,-0.004064848,-0.013136472,0.00300228,-5.035365072,4.495254192,2.009123909,1163.836679,1130.74066,1121.075121,1127.187613,-137.1058819,-334.8589193,-156.9775479,17.0887439,158.4277897
3.14,0.273771546,0.045410858,0.265832794,-0.03323097,0.031223903,-0.016474458,0.003126111,-0.003170845,0.093095777,0.995646937,-0.040981343,-0.043533513,9.844935758,-0.004139636,-0.01323325,0.003057487,-5.035371476,4.495220282,2.009127655,1163.503353,1129.994747,1120.480725,1127.304777,-107.9219312,-230.4112786,-303.1126446,73.3147332,158.4288307
3.1425,0.567818075,0.210503987,0.203590467,-0.03367706,0.030440505,-0.015151451,0.003134324,-0.003091672,0.093103323,0.995646479,-0.037288471,-0.038311501,9.844948748,-0.004188081,-0.013310962,0.00312196,-5.035377896,4.495187675,2.009127391,1163.297069,1129.588604,1119.559557,1127.554186,-41.19241841,-83.8791238,-436.0906318,121.567125,158.4299065
3.145,0.94213276,0.432681636,0.09191988,-0.03269971,0.030857887,-0.014150951,0.003138193,-0.003016241,0.093107121,0.995646367,-0.033416801,-0.032996374,9.844763071,-0.004210889,-0.01337076,0.003198884,-5.035384542,4.495154714,2.009124987,1163.297391,1129.575352,1118.300272,1127.912613,48.01853625,73.45474076,-459.8227321,127.4541902,158.4312351
3.1475,1.221295484,0.607070483,-0.013494674,-0.029974929,0.032660915,-0.014140907,0.003137028,-0.002947224,0.093107785,0.995646538,-0.029419947,-0.027687319,9.844327617,-0.004209285,-0.013413398,0.00329016,-5.035391408,4.495120889,2.009122289,1163.537162,1129.955877,1117.260444,1128.191457,140.9603239,217.2477808,-391.9730926,96.58825557,158.4323713
3.15,1.399084956,0.73489573,-0.106498052,-0.025283668,0.03557544,-0.014932419,0.003131711,-0.002883269,0.093107371,0.9956468,-0.025424426,-0.022444908,9.843590997,-0.004184921,-0.013439321,0.003396146,-5.035398436,4.495086219,2.009120911,1164.002192,1130.661591,1116.340406,1128.395554,236.2852894,350.3707749,-365.3384513,71.18259521,158.4335352
3.1525,1.435218389,0.813151298,-0.182263273,-0.018580378,0.039026443,-0.016139998,0.003123615,-0.002826866,0.09310893,0.995646857,-0.02147581,-0.017326214,9.842503202,-0.004139853,-0.013448783,0.003515703,-5.035404669,4.495051235,2.00912173,1164.718588,1131.707731,1115.433751,1128.54737,267.5247196,384.5684692,-298.1463187,46.39762032,158.4349603
3.155,1.300209853,0.816623107,-0.209067749,-0.013053988,0.041473553,-0.017096998,0.003116714,-0.002776792,0.093114601,0.995646499,-0.017681669,-0.012328864,9.841018622,-0.004076502,-0.013441919,0.00364642,-5.035409218,4.4950166,2.009124475,1165.339816,1132.584433,1114.849675,1128.627542,224.9844068,313.4209884,-203.2457007,34.15234564,158.4361693
3.1575,1.010305511,0.769801038,-0.200171056,-0.008597708,0.043577397,-0.017927494,0.003115608,-0.002730762,0.093123605,0.995645793,-0.014162356,-0.00743398,9.839098293,-0.003997411,-0.013418808,0.003784837,-5.035411608,4.494982576,2.009129326,1165.84351,1133.274836,1114.417523,1128.718132,162.0112773,222.5273508,-156.4777862,44.87542027,158.4373973
3.16,0.629640325,0.696320081,-0.168584688,-0.005654571,0.045176839,-0.018470169,0.003120796,-0.00268959,0.093131557,0.995645146,-0.01097749,-0.002705605,9.836712028,-0.003904938,-0.013379501,0.003926619,-5.03541221,4.494948901,2.00913712,1166.149872,1133.69707,1114.067286,1128.85192,57.41422713,89.4189252,-136.3626346,64.0499706,158.4386385
3.1625,0.205135098,0.609074097,-0.121238492,-0.005118575,0.046168728,-0.018550721,0.003128917,-0.002651279,0.09313167,0.995645212,-0.008240824,0.00172554,9.833840934,-0.003801075,-0.013324009,0.004066865,-5.035412848,4.494914753,2.009148034,1166.130581,1133.721931,1113.73571,1129.038382,-92.04787127,-81.04824398,-165.3222581,81.19697052,158.4398928
3.165,-0.267260168,0.504457014,-0.05899276,-0.007307977,0.047111039,-0.018219388,0.003136781,-0.002612657,0.0931218,0.995646211,-0.006079828,0.005738101,9.830477828,-0.003687539,-0.01325227,0.004200632,-5.035414783,4.494879617,2.009161341,1165.689633,1133.291829,1113.240675,1129.257904,-225.5139316,-221.349113,-212.8268899,62.80144164,158.4414087
3.1675,-0.581704458,0.421079515,-0.006476804,-0.010660518,0.047923916,-0.017838818,0.003142325,-0.002576379,0.093105665,0.995647793,-0.004496246,0.009226617,9.826626492,-0.00356587,-0.013164247,0.004323361,-5.035417197,4.494843461,2.009176174,1165.003012,1132.615185,1112.671575,1129.352389,-322.8975767,-308.7273123,-269.6769517,-3.135360566,158.4426778
3.17,-0.791271769,0.338814333,0.050218227,-0.014020238,0.048764075,-0.017759035,0.003147238,-0.002542329,0.093087155,0.99564959,-0.003529799,0.012170182,9.822302332,-0.003437523,-0.013060095,0.004431149,-5.035419369,4.494806586,2.009191434,1164.075145,1131.748192,1111.89229,1129.242228,-436.956947,-383.7867525,-388.0155902,-114.3774074,158.443949
3.1725,-0.938317277,0.234109663,0.132219159,-0.01727368,0.049606079,-0.018124992,0.00315238,-0.002511596,0.093066788,0.995651544,-0.00318895,0.014537149,9.817532008,-0.003303851,-0.012940389,0.004520761,-5.03542154,4.494768553,2.009206824,1162.818227,1130.696252,1110.731497,1128.780502,-465.9375785,-356.7467341,-452.1212004,-227.3828744,158.4454721
3.175,-1.002518963,0.136197303,0.215276221,-0.019371338,0.050123925,-0.018573056,0.003156998,-0.002485737,0.093046839,0.995653441,-0.003466038,0.016272003,9.812352848,-0.003166318,-0.01280629,0.00458963,-5.035424179,4.494729179,2.009223066,1161.745457,1129.964458,1109.631684,1128.105313,-416.7835041,-232.4324235,-448.0341212,-319.8210212,158.4467357
3.1775,-1.043566658,0.021143602,0.305605787,-0.020876102,0.050460696,-0.018596645,0.003162891,-0.002465322,0.093031949,0.995654842,-0.004357624,0.017380917,9.806811184,-0.003026636,-0.012659718,0.004635992,-5.0354265,4.494689308,2.009238942,1160.734309,1129.534089,1108.491327,1127.181397,-385.989841,-108.8059391,-446.7761945,-393.6618574,158.447989
3.18,-1.086396945,-0.111322519,0.386250542,-0.022077397,0.0506487,-0.017909417,0.003170384,-0.002449111,0.09302441,0.995655537,-0.00588811,0.017856483,9.800961852,-0.002886727,-0.012503599,0.00465877,-5.035428152,4.494649964,2.009253485,1159.815508,1129.420429,1107.397803,1126.137004,-341.1288111,32.4654877,-407.9008264,-419.2276934,158.4492305
3.1825,-1.139084687,-0.265233488,0.430289327,-0.023427369,0.050604275,-0.016276764,0.003179657,-0.002436658,0.093026197,0.995655345,-0.008055816,0.017700171,9.794866142,-0.002748744,-0.012341903,0.004657481,-5.035429398,4.494612566,2.009266543,1159.028665,1129.696417,1106.451823,1125.085258,-315.3905108,194.9882412,-362.8561062,-427.7181389,158.450454
3.185,-1.197346851,-0.468194565,0.414689284,-0.025902619,0.050116235,-0.013767125,0.003190678,-0.002423083,0.093039237,0.995654103,-0.010934678,0.016931435,9.788591083,-0.002615079,-0.012179514,0.004631996,-5.035430935,4.494578231,2.009277655,1158.238555,1130.39537,1105.583522,1123.998413,-264.8859797,295.7075258,-263.7777877,-347.0115612,158.4518969
3.1875,-1.215130355,-0.641431033,0.33786855,-0.028928284,0.049164363,-0.011796378,0.0032003,-0.002409184,0.093059398,0.995652207,-0.014482579,0.015514093,9.782207121,-0.002488105,-0.012022005,0.004582249,-5.035433383,4.494546865,2.009288071,1157.704235,1131.174955,1105.132934,1123.350201,-187.8919415,323.3459636,-116.6173829,-190.1155579,158.453075
3.19,-1.164280977,-0.798699919,0.204796688,-0.033002547,0.047419061,-0.01048506,0.003206207,-0.002399684,0.093084279,0.99564988,-0.018567634,0.013435576,9.775786393,-0.00237044,-0.011875149,0.004508158,-5.035436506,4.49451824,2.009299577,1157.299096,1132.0121,1105.000435,1123.047836,-147.3013758,354.9269503,15.73913702,-51.64850326,158.4542245
3.1925,-0.996119012,-0.941875888,0.010054074,-0.038525341,0.044319887,-0.009981293,0.003210784,-0.002391892,0.093114582,0.995647051,-0.023181698,0.010802271,9.769402209,-0.002265143,-0.01174447,0.00440971,-5.035439263,4.494492616,2.009311781,1156.967729,1132.949589,1105.211629,1123.091958,-96.29739127,323.2700563,133.199804,74.13754266,158.4555669
3.195,-0.769545867,-1.007034604,-0.153637748,-0.04267401,0.041153131,-0.010552231,0.003215743,-0.002386135,0.093145583,0.995644153,-0.028247929,0.007715091,9.763127388,-0.002175405,-0.01163497,0.004287002,-5.035441464,4.494469025,2.009324731,1156.817609,1133.62845,1105.666434,1123.418523,-38.98387039,251.3136362,223.9124126,167.9540221,158.4566521
3.1975,-0.490548963,-1.00798618,-0.287900303,-0.044754912,0.03795761,-0.011905368,0.003223216,-0.002382346,0.093174816,0.995641408,-0.033684883,0.004294489,9.757033232,-0.002104672,-0.011550766,0.004140413,-5.035442454,4.494446256,2.00933854,1156.772809,1134.206157,1106.331191,1123.931728,-8.865163293,219.9513458,282.1754439,213.048045,158.4576997
3.2,-0.213495596,-0.960001449,-0.382186825,-0.044619556,0.035015712,-0.013582426,0.003237397,-0.002378333,0.093205384,0.995638516,-0.039437601,0.000713019,9.751188123,-0.002056569,-0.011494901,0.00397079,-5.035441194,4.494425021,2.009351652,1156.773283,1134.728207,1107.077312,1124.483763,-5.031339659,201.1070941,289.6126157,198.634247,158.4587139
3.2025,0.009426851,-0.868570382,-0.422279619,-0.042759212,0.032704695,-0.015065928,0.003255763,-0.002372446,0.093236396,0.995635572,-0.045443848,-0.002982151,9.745657205,-0.002034404,-0.011469346,0.003779302,-5.035438142,4.494405015,2.009363119,1156.747652,1135.211693,1107.779255,1124.924899,-42.04906118,203.8927029,260.711057,129.7047413,158.4596849
3.205,0.179326563,-0.735063029,-0.413273053,-0.040321458,0.030814623,-0.01620638,0.003274562,-0.002365205,0.093265933,0.995632768,-0.051593693,-0.006768673,9.740500088,-0.002040913,-0.011474821,0.003567485,-5.035434024,4.494385078,2.009373384,1156.563038,1135.74767,1108.380867,1125.132287,-108.535672,182.3877566,157.6399078,0.258097631,158.4607962
3.2075,0.241556501,-0.621650736,-0.365347576,-0.03879703,0.029807859,-0.016840118,0.00329336,-0.00235536,0.093297702,0.995629762,-0.057799341,-0.010557066,9.735769412,-0.002078218,-0.011510693,0.003337204,-5.035429604,4.4943644,2.00938334,1156.204974,1136.123632,1108.567454,1124.92619,-191.5708857,119.9441079,-5.515855371,-174.391633,158.4616742
3.21,0.247651627,-0.518701664,-0.280840627,-0.038004075,0.029056425,-0.017587432,0.003308917,-0.002340185,0.093330689,0.995626663,-0.064003504,-0.014312767,9.731510535,-0.002147497,-0.01157513,0.003090482,-5.03542591,4.49434198,2.00939341,1155.605183,1136.347391,1108.353288,1124.260329,-303.7903495,39.97370732,-182.790156,-392.7606044,158.4624985
3.2125,0.233584979,-0.408900359,-0.139985981,-0.037950182,0.028087042,-0.018646297,0.003319457,-0.002323966,0.093364551,0.995623498,-0.070009181,-0.017992074,9.72775985,-0.002249086,-0.011665218,0.002829666,-5.035422746,4.494317594,2.009403101,1154.686022,1136.3235,1107.653503,1122.962387,-343.1667474,-72.17007706,-312.5645689,-539.0479581,158.4634204
3.215,0.233373302,-0.323601761,0.005667577,-0.038550949,0.027074587,-0.019376204,0.003325339,-0.002310806,0.093402484,0.995619955,-0.075620797,-0.021518526,9.72454457,-0.002382707,-0.011777167,0.002557492,-5.035419424,4.494291833,2.009411231,1153.889349,1135.98654,1106.790465,1121.565089,-281.0584555,-207.9620528,-368.69963,-586.2666453,158.464129
3.2175,0.265517879,-0.237054147,0.167327452,-0.039467193,0.025932643,-0.019635302,0.00332581,-0.002303136,0.093442644,0.995616203,-0.080681846,-0.024845548,9.721882584,-0.002547316,-0.011906581,0.002276958,-5.035416166,4.494264707,2.009417104,1153.28073,1135.28369,1105.810005,1120.031054,-179.0770219,-336.1366944,-381.5340672,-601.6512922,158.4647709
3.22,0.322934353,-0.147336847,0.325700632,-0.040043425,0.024994207,-0.019345315,0.003320472,-0.002303087,0.093481825,0.995612542,-0.085048267,-0.027932216,9.719781929,-0.002741163,-0.012048621,0.00199119,-5.035412606,4.494235925,2.009421166,1152.993964,1134.305857,1104.882794,1118.556833,-9.287682578,-435.953911,-324.7561998,-532.447766,158.4653544
3.2225,0.387747456,-0.05837891,0.454267479,-0.039476858,0.024632996,-0.018259067,0.003310907,-0.002309236,0.093520031,0.995608973,-0.088651054,-0.030706664,9.718240602,-0.00296187,-0.012198164,0.00170328,-5.035408471,4.494205419,2.009423784,1153.234292,1133.10392,1104.186224,1117.368815,236.4008191,-538.4291998,-222.0826052,-408.071441,158.4658642
3.225,0.430023111,0.036063765,0.539873532,-0.037586218,0.024754707,-0.016000259,0.003294,-0.002315642,0.093553411,0.995605883,-0.091529864,-0.033194345,9.717247176,-0.003206176,-0.012350092,0.001415972,-5.035404518,4.494172489,2.009425494,1154.175968,1131.613711,1103.772381,1116.516476,439.6651578,-518.622797,-69.98099194,-191.991092,158.4663884
3.2275,0.40575524,0.096168691,0.534850926,-0.035650209,0.025201879,-0.013523622,0.003267187,-0.002324124,0.093579722,0.995603483,-0.093588237,-0.035438189,9.716781031,-0.003469979,-0.01249951,0.00113177,-5.0354009,4.494136622,2.009427129,1155.432617,1130.510806,1103.836319,1116.408859,564.0345879,-372.2523235,109.5758535,92.4773551,158.466751
3.23,0.29718415,0.130595669,0.443543269,-0.033677099,0.025915256,-0.011133284,0.003233311,-0.002337606,0.093599552,0.9956017,-0.094715952,-0.037391579,9.716812838,-0.00374841,-0.012642059,0.000853074,-5.035397286,4.494098516,2.009428636,1156.996141,1129.752449,1104.320261,1116.978862,704.1767765,-220.6243877,290.900437,389.5066294,158.4670362
3.2325,0.065427534,0.142545217,0.251639006,-0.031666858,0.026581384,-0.009150252,0.003195469,-0.002356066,0.093610259,0.99560077,-0.094878558,-0.039009603,9.717305706,-0.004035694,-0.012774297,0.000582127,-5.03539464,4.49405877,2.009429867,1158.953501,1129.407685,1105.290821,1118.356393,691.4403493,-21.56412588,396.1726342,588.5555653,158.4672898
3.235,-0.198199394,0.132964623,0.050192526,-0.030905348,0.026733965,-0.008441042,0.003155722,-0.00237928,0.093609411,0.995600919,-0.094067937,-0.040277007,9.718216296,-0.004325274,-0.0128939,0.000321066,-5.035394269,4.49401794,2.009430873,1160.453343,1129.644629,1106.301124,1119.92164,532.3695047,196.70657,407.5556291,659.2636637,158.4674289
3.2375,-0.500325562,0.109332844,-0.152694883,-0.031474973,0.026600153,-0.009102389,0.003117093,-0.002401113,0.093600453,0.995601825,-0.092409918,-0.041156574,9.719495785,-0.004610142,-0.012999711,7.20E-05,-5.035397771,4.493977255,2.009430718,1161.615349,1130.391217,1107.3286,1121.652711,386.0826697,363.4661722,382.5444076,676.3757661,158.4674954
3.24,-0.800559869,0.075038881,-0.326301708,-0.033232391,0.02649483,-0.010940472,0.003084778,-0.002414929,0.093587608,0.995603095,-0.09005749,-0.041573549,9.721091371,-0.004883062,-0.013091706,-0.00016299,-5.03540569,4.493937759,2.009428001,1162.383756,1131.461959,1108.213846,1123.303519,194.4976732,468.7802827,285.6445952,594.594102,158.467504
3.2425,-1.057236317,0.023484134,-0.441613261,-0.036312997,0.026817635,-0.013450221,0.003060419,-0.002418549,0.093575926,0.995604254,-0.087104502,-0.041533594,9.722948187,-0.005137052,-0.013170742,-0.000382085,-5.035416951,4.493900077,2.00942249,1162.587837,1132.735119,1108.756823,1124.625681,-50.81271058,549.5738911,129.7320132,465.7282622,158.4674452
3.245,-1.272911597,-0.06452823,-0.511479109,-0.041008791,0.027750749,-0.016036076,0.003043046,-0.002412196,0.093561624,0.995605658,-0.083621949,-0.041099277,9.725010853,-0.005365573,-0.013238292,-0.000584072,-5.035431298,4.493864015,2.009415228,1162.129693,1134.209829,1108.862506,1125.63216,-281.2142619,490.7858397,-58.87337693,262.4354628,158.4672995
3.2475,-1.358930506,-0.1567316,-0.530236332,-0.04518084,0.028332946,-0.017183656,0.003028974,-0.00239761,0.093540846,0.995607678,-0.079673094,-0.040388206,9.72722524,-0.005563101,-0.013295998,-0.000768567,-5.035446796,4.493828289,2.009407279,1161.181766,1135.189048,1108.462456,1125.937859,-475.6921117,300.2881631,-248.3233009,22.64594681,158.4671173
3.25,-1.345819096,-0.250979438,-0.536742289,-0.048967914,0.027760531,-0.017407005,0.003011255,-0.002377715,0.093510468,0.995610622,-0.07531794,-0.039581751,9.729540346,-0.005725353,-0.013345435,-0.000936153,-5.035462476,4.493792014,2.009399337,1159.751232,1135.71127,1107.620889,1125.74539,-696.1771497,98.27833693,-434.1796012,-168.1203699,158.4668737
3.2525,-1.229990909,-0.338169599,-0.551526327,-0.05282211,0.026056119,-0.017725049,0.002988435,-0.002354301,0.09347161,0.995614387,-0.070638607,-0.038750011,9.731909631,-0.005849429,-0.013388026,-0.001088154,-5.035478524,4.493755224,2.009391692,1157.70088,1135.68044,1106.291558,1125.097257,-765.1987596,-123.4499395,-503.2224237,-281.1751356,158.4665123
3.255,-1.065279693,-0.374327873,-0.570097412,-0.055475582,0.024497898,-0.01860147,0.002959346,-0.00232837,0.093425614,0.995618852,-0.065738414,-0.037952786,9.734292928,-0.005933711,-0.013425126,-0.001226682,-5.035494959,4.493717872,2.00938478,1155.925239,1135.09402,1105.104777,1124.339514,-671.6958818,-334.3220817,-443.3948352,-323.3796305,158.4661546
3.2575,-0.847854196,-0.367002187,-0.582842913,-0.057756752,0.023127548,-0.02005109,0.002924375,-0.002304925,0.093377473,0.995623534,-0.060642626,-0.037223275,9.736657523,-0.005977977,-0.013458034,-0.001354417,-5.035511116,4.493680754,2.009379513,1154.342401,1134.008829,1104.074583,1123.480359,-567.6192071,-491.4396875,-353.6899019,-349.6000025,158.4657393
3.26,-0.599373571,-0.327146609,-0.578560842,-0.059656744,0.02198108,-0.021859857,0.002882638,-0.002281253,0.093329159,0.995628254,-0.055526695,-0.036601297,9.73897974,-0.005983169,-0.01348807,-0.001474562,-5.035527275,4.493643994,2.009375689,1153.087142,1132.636822,1103.336328,1122.591514,-396.7171964,-577.0919777,-195.6206724,-357.9140403,158.4652769
3.2625,-0.329716157,-0.258412898,-0.542727,-0.060689745,0.021258742,-0.023944627,0.002837046,-0.002257823,0.09328344,0.995632737,-0.050491908,-0.036054887,9.741244813,-0.005951489,-0.013516496,-0.001590327,-5.03554342,4.493608077,2.009372707,1152.358815,1131.123369,1103.09648,1121.690788,-186.3468133,-643.7105641,30.23319295,-396.3191195,158.4647597
3.265,-0.003190752,-0.1588132,-0.460921407,-0.060783283,0.020870437,-0.026284972,0.002791733,-0.002238578,0.093245884,0.995636439,-0.045560578,-0.035530966,9.743446906,-0.005886416,-0.01354438,-0.001704774,-5.035558789,4.493573645,2.009371002,1152.155408,1129.418269,1103.487494,1120.609919,30.8096368,-572.9640876,258.2434245,-390.8868787,158.4640792
3.2675,0.258363867,-0.072290968,-0.369409342,-0.06011366,0.020802958,-0.027654276,0.002751889,-0.002224541,0.0932179,0.995639208,-0.040797131,-0.034946964,9.745589072,-0.005792416,-0.013572516,-0.001820665,-5.035573307,4.493540245,2.009370026,1152.512863,1128.258549,1104.387697,1119.736354,228.8040525,-383.7303004,467.1112832,-329.2304504,158.4634654
3.27,0.49954489,0.008532068,-0.273824517,-0.059056601,0.020905326,-0.028202885,0.002719419,-0.002218082,0.093198594,0.995641119,-0.036230463,-0.03428343,9.747682448,-0.005674876,-0.013601223,-0.001940373,-5.035586322,4.493507054,2.009368587,1153.299429,1127.499617,1105.82305,1118.963766,402.5526848,-230.8426299,726.4694544,-292.4861231,158.4628084
3.2725,0.759902619,0.09229556,-0.179385319,-0.057429279,0.021280725,-0.028088494,0.002693157,-0.002225639,0.093188104,0.995642147,-0.031798535,-0.033585423,9.749744679,-0.00554003,-0.013630231,-0.002065783,-5.03559688,4.493473657,2.00936638,1154.525626,1127.104336,1108.020044,1118.273923,460.2755231,-62.31377886,855.8706791,-196.9850727,158.461977
3.275,0.948361351,0.148836013,-0.12974236,-0.055582649,0.0217703,-0.027693923,0.002669669,-0.002248818,0.093183094,0.995642612,-0.027518374,-0.0329311,9.751799138,-0.005394543,-0.01365878,-0.002198378,-5.035604216,4.49343905,2.009364122,1155.600806,1127.188048,1110.102404,1117.978841,400.2797139,106.3739111,843.5990786,-50.2525343,158.4612543
3.2775,1.099206271,0.192273226,-0.11286082,-0.053094666,0.022270981,-0.027496793,0.002646858,-0.002287063,0.093178976,0.995642952,-0.023427199,-0.032367169,9.753872725,-0.005245225,-0.013685783,-0.002339112,-5.035607915,4.49340287,2.009362525,1156.527025,1127.636205,1112.23804,1118.022661,324.2759326,226.2211041,828.8462831,69.28687189,158.4605088
3.28,1.211700392,0.227280984,-0.116942318,-0.050280832,0.022676246,-0.02754677,0.002626543,-0.002335295,0.093175304,0.995643221,-0.019623934,-0.03185518,9.755994021,-0.005098747,-0.013710058,-0.002488251,-5.035608541,4.493365974,2.00936191,1157.222186,1128.319154,1114.246635,1118.325275,215.5966704,312.1919787,732.2584459,162.6633569,158.4597507
3.2825,1.269750837,0.25496965,-0.133293821,-0.047233014,0.023000488,-0.027742367,0.00261023,-0.002382565,0.093171727,0.995643479,-0.016304342,-0.031350948,9.758191823,-0.004961105,-0.013730617,-0.002645328,-5.035607007,4.493328165,2.009362264,1157.605008,1129.197165,1115.899332,1118.835978,116.3880444,409.1280846,600.966694,232.050031,158.4589845
3.285,1.267069195,0.279759665,-0.14730991,-0.043419746,0.023568907,-0.028224782,0.002596181,-0.002418423,0.093166412,0.995643932,-0.013644857,-0.03087294,9.760492547,-0.004837292,-0.013746863,-0.002808972,-5.035604367,4.493289277,2.009362792,1157.804126,1130.364794,1117.251469,1119.485526,61.80157491,430.4616921,368.9081426,211.7890443,158.4580642
3.2875,1.199059064,0.290358026,-0.13956897,-0.040141618,0.024432636,-0.028964164,0.00258635,-0.002443636,0.093163163,0.995644213,-0.011584086,-0.030387382,9.762916019,-0.004731368,-0.013758728,-0.002976514,-5.035600468,4.493250747,2.009362325,1157.914016,1131.349474,1117.743873,1119.894923,79.34209349,374.7207263,55.54476456,104.5823604,158.4573022
3.29,1.059938244,0.287027921,-0.097976344,-0.036896808,0.025731586,-0.029893432,0.002585205,-0.00245575,0.093163463,0.995644174,-0.010108885,-0.029803793,9.765475678,-0.004646037,-0.013766824,-0.00314414,-5.035595482,4.493213497,2.00935913,1158.200837,1132.238398,1117.529192,1120.008437,212.2666514,344.7863634,-246.7152716,-36.66726809,158.4565513
3.2925,0.816735635,0.271301364,-0.004199356,-0.033364752,0.027261761,-0.03091124,0.002594987,-0.002450733,0.093167272,0.99564382,-0.00923468,-0.029069746,9.768177538,-0.004582518,-0.013772329,-0.003307244,-5.035589892,4.49317781,2.00935186,1158.975349,1133.073405,1116.510296,1119.711586,370.9333225,254.9047816,-478.1809381,-178.2797027,158.455669
3.295,0.563715507,0.260322281,0.104198441,-0.031187663,0.028101204,-0.031446267,0.002615537,-0.00243037,0.093174988,0.995643107,-0.008865658,-0.028187732,9.77101846,-0.004540526,-0.013776763,-0.003460832,-5.035584581,4.493144247,2.009340567,1160.055503,1133.512922,1115.138288,1119.117039,513.4807365,117.6994468,-618.2575076,-286.3250247,158.4549533
3.2975,0.284153184,0.272623811,0.224983484,-0.030208478,0.028325697,-0.031295458,0.002644292,-0.002390631,0.093184292,0.995642265,-0.009024869,-0.027193685,9.773987872,-0.004518069,-0.013781748,-0.003600145,-5.035580526,4.493112506,2.0093255,1161.542753,1133.661903,1113.419009,1118.279961,637.3096887,15.63202645,-711.3770934,-343.3912846,158.4542617
3.3,0.005216478,0.319130828,0.335848725,-0.030247842,0.028131128,-0.030428205,0.002676809,-0.002327891,0.093192254,0.995641586,-0.009735746,-0.026158608,9.777067556,-0.004511633,-0.013788682,-0.003721152,-5.035578874,4.493081154,2.009307305,1163.242052,1133.591082,1111.581402,1117.400082,685.5456347,-69.66702531,-723.1355741,-312.5262279,158.4535925
3.3025,-0.248856763,0.414840486,0.41002074,-0.031241935,0.027759691,-0.028884206,0.002707288,-0.002247869,0.093197201,0.995641226,-0.010849961,-0.025195171,9.780231681,-0.004516563,-0.013798514,-0.003820929,-5.035580189,4.493049291,2.009288017,1164.970481,1133.313568,1109.803331,1116.71733,702.4983218,-151.863223,-723.141906,-189.8249371,158.4529527
3.305,-0.504981482,0.575172777,0.4336711,-0.033047712,0.027824365,-0.026591795,0.002731313,-0.002159058,0.093197426,0.995641335,-0.012172484,-0.024392836,9.783449453,-0.004527389,-0.013811691,-0.003897901,-5.03558447,4.493016691,2.009269075,1166.754543,1132.831766,1107.965693,1116.450958,562.8023764,-188.7445601,-598.827358,30.89651846,158.4522211
3.3075,-0.672260744,0.721312924,0.393124084,-0.03466931,0.02886162,-0.024692658,0.002744109,-0.002069562,0.093189466,0.995642234,-0.013527891,-0.023846348,9.786687987,-0.00453821,-0.013828173,-0.003951926,-5.035591561,4.492982914,2.009252116,1167.784493,1132.369845,1106.809194,1116.871813,280.6781394,-183.4792059,-365.3517134,318.9680793,158.4516426
3.31,-0.792017435,0.83642264,0.298335159,-0.036205782,0.03108767,-0.02330046,0.002742044,-0.00198249,0.093169824,0.995644254,-0.014848041,-0.023618892,9.789915093,-0.004543174,-0.013847499,-0.00398408,-5.03560175,4.492947322,2.009237733,1168.157934,1131.91437,1106.138934,1118.045798,-2.590258882,-182.6061782,-175.9020999,668.6580239,158.451097
3.3125,-0.881103525,0.886106964,0.147124394,-0.038079101,0.03490333,-0.022512965,0.002724844,-0.001901819,0.093140397,0.995647211,-0.016053261,-0.023710538,9.79310046,-0.004537152,-0.013868874,-0.003996206,-5.035614292,4.492910208,2.009225145,1167.771542,1131.456814,1105.929684,1120.215103,-271.7579271,-139.380356,16.0539995,879.2801698,158.4504802
3.315,-0.905106544,0.825789139,0.013217235,-0.040031658,0.038672263,-0.022647274,0.002691381,-0.001831451,0.093102134,0.99565101,-0.017077632,-0.024138294,9.796218247,-0.004516005,-0.013891353,-0.003990694,-5.035628868,4.49287216,2.009214225,1166.799144,1131.217468,1106.219204,1122.442199,-492.069269,-49.37378964,191.6948852,904.7345583,158.4499971
3.3175,-0.865860675,0.650320582,-0.103041834,-0.042718373,0.0421142,-0.023366579,0.002646402,-0.001771864,0.093059866,0.995655186,-0.017920006,-0.024799566,9.799248589,-0.004477063,-0.013913962,-0.00397004,-5.035644402,4.492833758,2.009204024,1165.311196,1131.209945,1106.888158,1124.738776,-645.4722267,44.86202078,307.5501296,870.4648211,158.4495448
3.32,-0.767710976,0.393776114,-0.191157449,-0.045566177,0.044572055,-0.024274808,0.002596959,-0.001723698,0.093020779,0.995659047,-0.01857847,-0.025548186,9.8021789,-0.004419337,-0.013935733,-0.003936748,-5.03565843,4.492795784,2.009193603,1163.571783,1131.441778,1107.756955,1126.794523,-707.5944898,151.0256152,364.0683348,703.6749947,158.4491167
3.3225,-0.60153372,0.078707948,-0.237900239,-0.047876172,0.045472914,-0.025233819,0.002546691,-0.001690942,0.092989452,0.995662149,-0.018995982,-0.026311223,9.805005045,-0.004343358,-0.0139557,-0.003893434,-5.035668809,4.492758305,2.009182864,1161.773223,1131.965073,1108.7085,1128.257151,-743.9247505,277.8167576,402.2660999,461.7594343,158.4487165
3.325,-0.342469916,-0.302413246,-0.246244614,-0.049632087,0.044505335,-0.026249022,0.002498185,-0.001671752,0.092965238,0.99566455,-0.019232649,-0.027026025,9.807732899,-0.004250687,-0.013972956,-0.003842871,-5.035675697,4.492720917,2.009171309,1159.852159,1132.830862,1109.768285,1129.10332,-627.7784427,327.6391172,358.8453347,155.773225,158.4482676
3.3275,-0.097883427,-0.576702736,-0.218478613,-0.050207413,0.042219849,-0.026777552,0.002452065,-0.001662685,0.092942603,0.995666773,-0.019382209,-0.02766539,9.810378104,-0.004143475,-0.013986683,-0.003788083,-5.035680583,4.492682961,2.009159293,1158.634331,1133.603269,1110.502727,1129.036017,-378.7981809,273.0255047,258.0317869,-159.0917871,158.4479195
3.33,0.14862234,-0.766701877,-0.162630696,-0.049890711,0.039279568,-0.027074685,0.002408023,-0.00166573,0.09291747,0.995669197,-0.019430153,-0.028230581,9.812964895,-0.004024328,-0.013996214,-0.003732374,-5.035684283,4.492643606,2.009148632,1157.958169,1134.195989,1111.058444,1128.307861,-162.1210627,165.7634317,210.6742239,-414.4456328,158.447599
3.3325,0.416658804,-0.878899653,-0.070418211,-0.048510984,0.035893301,-0.027445166,0.00236945,-0.001678133,0.09289123,0.995671692,-0.019441877,-0.028642099,9.815526317,-0.003896159,-0.014001221,-0.003679189,-5.035687628,4.492603307,2.009140086,1157.823726,1134.432086,1111.556098,1126.963789,56.39879025,-19.98979137,162.6607332,-522.6221604,158.4472476
3.335,0.600013031,-0.877698459,0.023036435,-0.046584221,0.033415378,-0.027774068,0.002337731,-0.00169739,0.092863972,0.995674251,-0.019474183,-0.028859112,9.818102949,-0.003761995,-0.014001908,-0.003632029,-5.035691655,4.492562589,2.00913397,1158.240163,1134.096041,1111.871748,1125.694751,253.8937188,-252.9455616,113.6034745,-485.4947476,158.4469842
3.3375,0.731924554,-0.790512361,0.126125093,-0.044124815,0.031245367,-0.027908548,0.002313316,-0.001724917,0.09283863,0.995676602,-0.019500146,-0.028865059,9.820740637,-0.003625195,-0.013999081,-0.003594061,-5.03569573,4.492522251,2.009130758,1159.093194,1133.167358,1112.124115,1124.536315,389.2430207,-453.9159181,93.11769329,-413.9969191,158.4467536
3.34,0.823709135,-0.644784163,0.227880466,-0.041714776,0.029359799,-0.027623732,0.002301794,-0.001756796,0.092822077,0.9956781,-0.019578043,-0.02853163,9.823488892,-0.003489488,-0.013994179,-0.003567614,-5.035698581,4.492483456,2.009129554,1160.186378,1131.826461,1112.337336,1123.624766,460.5430052,-592.5960948,75.70561253,-280.139435,158.4465525
3.3425,0.88069911,-0.446297318,0.313431379,-0.039899101,0.028016438,-0.026707893,0.002304093,-0.001789359,0.092815049,0.995678683,-0.019760165,-0.027819333,9.826398352,-0.003358671,-0.013989154,-0.003554072,-5.03569987,4.49244648,2.009129925,1161.395909,1130.204378,1112.502643,1123.135618,514.2691669,-703.4518953,60.03198004,-100.9936922,158.4463892
3.345,0.928527837,-0.171839938,0.380283144,-0.038296652,0.027244998,-0.025101684,0.002317546,-0.001824514,0.092817922,0.99567832,-0.019986494,-0.026767199,9.829517003,-0.003236603,-0.013986215,-0.003553547,-5.035699068,4.492411881,2.009131197,1162.757723,1128.309201,1112.637496,1123.119798,456.5236256,-627.7630097,38.41482011,90.52477705,158.4462391
3.3475,0.957871679,0.069500862,0.399152845,-0.036719457,0.027285625,-0.023667439,0.002340236,-0.001855954,0.09283157,0.995676945,-0.020347357,-0.025383025,9.832888336,-0.003126849,-0.013987597,-0.003564647,-5.035696159,4.49237974,2.009131714,1163.678527,1127.065562,1112.694717,1123.588242,302.2057729,-367.4180603,13.01765299,275.6757152,158.4461533
3.35,0.971191493,0.305512774,0.379990661,-0.034380927,0.027857145,-0.022394839,0.002364873,-0.001876917,0.092849982,0.995675147,-0.020944447,-0.023777689,9.836547805,-0.00303221,-0.013995264,-0.003584608,-5.03569285,4.492348842,2.009130586,1164.268752,1126.472111,1112.702584,1124.498176,177.8700247,-67.24547909,-3.427282024,474.3974767,158.4461089
3.3525,0.955751187,0.564214112,0.322230412,-0.031216792,0.028975952,-0.021168288,0.002384572,-0.001884445,0.092867967,0.995673432,-0.021798313,-0.022061861,9.840518898,-0.002954795,-0.014010653,-0.003609279,-5.035690651,4.492318108,2.009127692,1164.567877,1126.729335,1112.677581,1125.960229,52.17415525,263.8497222,-10.5217946,571.3266688,158.4461035
3.355,0.909754026,0.745842102,0.255523014,-0.028623293,0.030310039,-0.020468658,0.00240221,-0.001879814,0.092889239,0.995671438,-0.022824461,-0.020165603,9.844809702,-0.002896297,-0.014034556,-0.003633126,-5.035689318,4.492288564,2.009121862,1164.529623,1127.79136,1112.649975,1127.354809,-46.04440976,578.9652632,-7.273737634,561.5628417,158.4461384
3.3575,0.82687705,0.873289455,0.183391952,-0.026299237,0.032251788,-0.020114722,0.002420781,-0.00186599,0.092912886,0.995669234,-0.023903588,-0.018023048,9.849412319,-0.002857723,-0.014066987,-0.003649884,-5.035688134,4.492260522,2.009112475,1164.337655,1129.624161,1112.641212,1128.768043,-72.18203276,822.1591589,2.269755111,546.5593776,158.4462127
3.36,0.715488323,0.940023002,0.116171804,-0.024372859,0.034808185,-0.019999068,0.002441428,-0.001848941,0.092936735,0.995667004,-0.024861926,-0.015615751,9.854301938,-0.002839549,-0.014106938,-0.003653084,-5.03568533,4.492233331,2.009099894,1164.168713,1131.902156,1112.661324,1130.087606,-24.34093676,951.0618808,15.20209736,485.6802923,158.4463184
3.3625,0.574617813,0.917417662,0.06305477,-0.022983549,0.03794428,-0.020093043,0.002467489,-0.001837173,0.0929612,0.995664687,-0.025475382,-0.012894613,9.859436282,-0.002841689,-0.014152235,-0.003636451,-5.035679563,4.492206314,2.00908439,1164.215951,1134.379471,1112.717223,1131.196445,106.9282923,1039.162545,28.77282096,425.1197086,158.4464596
3.365,0.376791591,0.779493108,0.020644939,-0.021765109,0.041549075,-0.020341954,0.002499645,-0.001835214,0.092984066,0.995662481,-0.025609435,-0.00986454,9.864757523,-0.002862969,-0.014199509,-0.003594531,-5.035671512,4.492178267,2.009066715,1164.703354,1137.097968,1112.805188,1132.213205,260.2458182,890.3930633,30.95849821,318.8727973,158.4466663
3.3675,0.189860863,0.580046681,0.00241276,-0.020943303,0.043871174,-0.020571466,0.002536071,-0.001844607,0.093000007,0.99566089,-0.025202597,-0.006584721,9.87019362,-0.002900769,-0.014244331,-0.003523079,-5.035662678,4.492147902,2.009048113,1165.51718,1138.831436,1112.872015,1132.790809,398.3449194,531.0116018,20.88352748,182.5577967,158.4468666
3.37,-0.017754391,0.315989907,-0.003599567,-0.020219743,0.045395695,-0.020674622,0.002575125,-0.001855923,0.093006974,0.995660126,-0.024420922,-0.003102534,9.875661041,-0.002950959,-0.014281475,-0.003419264,-5.035654298,4.492114641,2.009029473,1166.695079,1139.753026,1112.909606,1133.125994,564.570936,200.8164889,10.67801975,108.7276018,158.4470914
3.3725,-0.281147126,-0.036581303,-0.006876829,-0.019814068,0.046060925,-0.020550961,0.002612404,-0.001856541,0.093001096,0.995660586,-0.023513662,0.000474483,9.881067054,-0.00300786,-0.014305309,-0.003281835,-5.035648309,4.49207726,2.00901192,1168.340034,1139.835519,1112.925405,1133.334447,606.6825539,-123.1871035,7.747024013,58.76971944,158.4473836
3.375,-0.496623042,-0.326758737,-0.013604487,-0.020331541,0.045496738,-0.020334316,0.002642718,-0.00184131,0.092980704,0.995662448,-0.022601276,0.003998061,9.886311386,-0.003064745,-0.014310267,-0.003110989,-5.035645871,4.492035236,2.008996493,1169.728492,1139.137091,1112.948341,1133.419842,520.2641022,-390.4826356,26.13452241,29.91432043,158.447641
3.3775,-0.679734503,-0.572949822,-0.030082935,-0.022008007,0.043940848,-0.020126861,0.002661557,-0.001804338,0.092949197,0.995665416,-0.021834572,0.007324199,9.891290051,-0.003114402,-0.014291401,-0.002908153,-5.035647551,4.491989262,2.008983449,1170.941355,1137.883105,1113.056078,1133.484018,435.3788784,-545.4402924,70.29706078,26.06980179,158.4479065
3.38,-0.813555886,-0.756270825,-0.055660091,-0.024379619,0.041727118,-0.019987569,0.002668259,-0.001744993,0.09291336,0.995668861,-0.021270477,0.010366929,9.895897158,-0.003149789,-0.014244926,-0.002675598,-5.035652563,4.491940853,2.008972414,1171.905386,1136.409889,1113.299826,1133.550191,314.7184667,-581.0080638,141.6564727,19.87079628,158.4481733
3.3825,-0.867108813,-0.840213555,-0.089581457,-0.027144132,0.039010791,-0.019986139,0.002662452,-0.001671944,0.092879499,0.995672176,-0.020797939,0.013024116,9.900027798,-0.003164539,-0.014168599,-0.002416246,-5.035659755,4.491891905,2.008963727,1172.514947,1134.978065,1113.76436,1133.583372,190.5061232,-551.6637057,254.3029504,-17.5080004,158.448435
3.385,-0.825098945,-0.809976818,-0.132509929,-0.030642502,0.035359132,-0.020214057,0.00264647,-0.00159286,0.09285023,0.995675097,-0.020334619,0.015247638,9.903581417,-0.003153251,-0.014061922,-0.002133382,-5.035668089,4.49184349,2.008957278,1172.857917,1133.651571,1114.571341,1133.462651,74.9878371,-384.9034922,320.5181491,-96.65566754,158.4487334
3.3875,-0.703198659,-0.67695336,-0.162900426,-0.033557711,0.032193948,-0.020644047,0.002620053,-0.001513444,0.092826635,0.995677511,-0.019852737,0.016944317,9.906465165,-0.003111802,-0.013926108,-0.001830557,-5.035677692,4.491796175,2.008953317,1172.889887,1133.053548,1115.366951,1133.100094,-16.10507381,-111.5311684,303.8749691,-230.9494623,158.4489616
3.39,-0.509561996,-0.453947374,-0.179142106,-0.036200761,0.02958439,-0.021349248,0.002587526,-0.001438994,0.092808181,0.995679446,-0.01933173,0.018118222,9.9085945,-0.003037542,-0.013763976,-0.001511135,-5.035688906,4.491750942,2.008950816,1172.777391,1133.093915,1116.090716,1132.307904,-54.94953242,165.9846047,239.3641871,-471.6386706,158.449159
3.3925,-0.24007977,-0.135597703,-0.176393932,-0.038697718,0.028192216,-0.022421083,0.002551532,-0.00137238,0.092793222,0.995681041,-0.018805688,0.018754301,9.909896298,-0.00292948,-0.013579699,-0.001178317,-5.035701026,4.491708144,2.008948624,1172.615139,1133.883471,1116.563772,1130.741901,-47.67621851,400.7032724,62.48204398,-676.3940061,158.4493483
3.395,-0.035084459,0.12086102,-0.156714605,-0.039631275,0.028878259,-0.023269431,0.002514837,-0.001314792,0.092780188,0.995682435,-0.018340733,0.018855513,9.91031003,-0.002788477,-0.013378487,-0.000835069,-5.035713293,4.491668008,2.008946416,1172.53901,1135.097431,1116.403126,1128.925934,-5.540939921,576.774388,-216.3282693,-804.5525654,158.4494573
3.3975,0.074596717,0.30968773,-0.128014308,-0.03834151,0.031020805,-0.023593109,0.0024812,-0.001261879,0.092767273,0.995683791,-0.018105348,0.018469714,9.909789484,-0.002617277,-0.013166256,-0.000484216,-5.035724755,4.491630683,2.008943463,1172.587434,1136.767343,1115.48213,1126.719138,43.84604404,720.5476722,-500.6238124,-906.9199689,158.4495041
3.4,0.051936908,0.412929883,-0.101650006,-0.035447492,0.033639666,-0.023328581,0.002454327,-0.001211807,0.092755938,0.995684966,-0.018208573,0.017655574,9.908303298,-0.002420549,-0.012949277,-0.000128639,-5.035734072,4.491596316,2.008939579,1172.758241,1138.70017,1113.900007,1124.391334,94.95339449,802.880814,-769.612919,-896.1720138,158.4494904
3.4025,-0.164642927,0.402978462,-0.085694128,-0.032439947,0.036098618,-0.022783553,0.002437514,-0.001168289,0.092751533,0.995685449,-0.01863689,0.016471009,9.90583584,-0.002204641,-0.012733866,0.000228466,-5.035740321,4.4915648,2.008935423,1173.062201,1140.781747,1111.634066,1122.238278,150.7517208,898.4387634,-1092.467131,-824.6934268,158.4493936
3.405,-0.634547709,0.278845337,-0.075176956,-0.030735293,0.038297863,-0.02250038,0.002433175,-0.001135004,0.092760093,0.99568467,-0.019362818,0.01497481,9.902389036,-0.001977079,-0.012526118,0.000583332,-5.03574304,4.49153612,2.008931575,1173.511999,1143.192363,1108.437672,1120.267867,162.8574384,826.3294888,-1188.845247,-575.2120555,158.4491692
3.4075,-1.151761616,0.11318531,-0.062608901,-0.031568024,0.039050393,-0.022818038,0.002441374,-0.001116754,0.092784929,0.995682317,-0.020322938,0.013195727,9.897983364,-0.001745995,-0.012331682,0.000931447,-5.035742201,4.491509757,2.008928878,1173.876488,1144.913394,1105.68984,1119.362217,120.3490301,576.2637416,-1032.957569,-188.150541,158.4488842
3.41,-1.710376041,-0.069233855,-0.03066016,-0.035103301,0.038323363,-0.023645405,0.002460117,-0.00112088,0.092827608,0.995678244,-0.021388216,0.011134398,9.892658218,-0.001519618,-0.012155549,0.001267561,-5.035737056,4.491484801,2.008928856,1174.113744,1146.073682,1103.272884,1119.327114,47.83036243,329.6792503,-896.1488127,162.6219887,158.4484891
3.4125,-2.312959747,-0.2575579,0.038749439,-0.042390235,0.036424307,-0.024649828,0.002486813,-0.00114532,0.092888843,0.995672396,-0.022596382,0.00881251,9.886473184,-0.001305768,-0.012001945,0.001585858,-5.035727781,4.491461383,2.008931356,1174.11564,1146.56179,1101.209096,1120.175327,-63.52435187,4.94039383,-568.2132412,415.3437183,158.4478796
3.415,-2.683694011,-0.366588882,0.117613627,-0.050572604,0.034714396,-0.024804819,0.002514464,-0.001183536,0.092965326,0.995665108,-0.024062458,0.006186941,9.879507662,-0.001111221,-0.011874287,0.001880148,-5.035715932,4.491439446,2.008936448,1173.796123,1146.098384,1100.431817,1121.403833,-207.9814759,-371.205831,-90.94267616,529.7372213,158.4472538
3.4175,-2.858331816,-0.417654086,0.202512826,-0.059758854,0.03322617,-0.023836737,0.002533786,-0.001233456,0.093050116,0.995657055,-0.025800229,0.003172521,9.871858471,-0.000941248,-0.011775109,0.002144216,-5.035703399,4.491418556,2.008945214,1173.075733,1144.705761,1100.754382,1122.824013,-356.7903102,-697.380248,299.0052552,547.68709,158.4465006
3.42,-2.855809116,-0.424443802,0.281555366,-0.068808232,0.031907863,-0.022345025,0.002540892,-0.001288905,0.093136297,0.995648904,-0.027878675,-0.000194446,9.863638034,-0.000799503,-0.011705919,0.002372364,-5.035690668,4.491398416,2.008957517,1172.012171,1142.611483,1101.926844,1124.142268,-498.5241562,-971.6852642,624.7967251,455.2328928,158.445639
3.4225,-2.658230738,-0.389011087,0.351662146,-0.076860231,0.030905966,-0.020952404,0.002530179,-0.001339637,0.093214434,0.995641565,-0.030437151,-0.003899355,9.854973266,-0.000687927,-0.011667144,0.002559685,-5.035678945,4.49137806,2.008973017,1170.583112,1139.847335,1103.878366,1125.100178,-685.1605172,-1308.04969,948.2055768,308.0132211,158.4446442
3.425,-2.25455096,-0.314986888,0.437914547,-0.08450724,0.03010005,-0.020009253,0.002500894,-0.001384996,0.093280877,0.995635374,-0.033407678,-0.007849596,9.846000513,-0.000606975,-0.011658063,0.00270262,-5.035668619,4.49135722,2.008990354,1168.586368,1136.071234,1106.667872,1125.682335,-749.6457841,-1406.885168,1027.128331,120.7053679,158.4432944
3.4275,-1.836035035,-0.238563122,0.524004885,-0.088920782,0.029679558,-0.019798391,0.002457461,-0.001423198,0.093337636,0.995630126,-0.036728571,-0.011852095,9.836863709,-0.000555859,-0.011676823,0.002799265,-5.0356595,4.491336116,2.00900779,1166.834883,1132.812909,1109.014007,1125.703705,-678.6633572,-1258.258489,873.0402965,-61.88530736,158.4420392
3.43,-1.399133064,-0.156874316,0.630388465,-0.091625815,0.029401772,-0.019652013,0.002401762,-0.001450022,0.093383863,0.995625896,-0.040388327,-0.015764975,9.827712079,-0.000532603,-0.011720524,0.002849291,-5.035651787,4.491313791,2.009024067,1165.193052,1129.779942,1111.033073,1125.372908,-653.444377,-1208.667584,765.6829051,-178.5528429,158.4406491
3.4325,-0.913415043,-0.059688718,0.764805188,-0.093521211,0.029147599,-0.018871152,0.002332757,-0.001464615,0.093416679,0.995622955,-0.044315264,-0.019518442,9.818695968,-0.000534277,-0.011785305,0.002853828,-5.035645763,4.491289593,2.009038811,1163.567661,1126.769571,1112.842422,1124.81094,-514.7855225,-956.5509368,553.2018672,-195.1285399,158.438827
3.435,-0.567951163,0.017232989,0.854042482,-0.094259506,0.029009206,-0.017272898,0.002253601,-0.001470018,0.093436774,0.995621224,-0.048356902,-0.022979351,9.80996261,-0.000557406,-0.011866464,0.002815405,-5.035641337,4.491263965,2.009050847,1162.619124,1124.997187,1113.799082,1124.397265,-282.8604037,-527.2050041,285.6549475,-114.3332372,158.4371828
3.4375,-0.297277973,0.085660197,0.874377185,-0.094313635,0.02906044,-0.014330431,0.002165123,-0.001468594,0.09344311,0.995620795,-0.052383922,-0.02607193,9.801653978,-0.000598177,-0.011958676,0.002737475,-5.035638661,4.491236218,2.009059822,1162.153359,1124.133546,1114.270697,1124.239274,-111.8052627,-192.6792677,134.3345588,-0.437073432,158.4354119
3.44,-0.085583195,0.142836334,0.806241484,-0.094050162,0.029339848,-0.010295204,0.002067713,-0.001464884,0.09343457,0.995621769,-0.056232403,-0.028747645,9.793903411,-0.000652764,-0.012056201,0.002624047,-5.035637479,4.491205769,2.00906659,1162.060098,1124.033791,1114.470755,1124.39508,28.26129631,122.6862234,51.61118144,147.5685499,158.4335397
3.4425,0.071589117,0.180835643,0.615804363,-0.093635677,0.02982788,-0.005700921,0.001962031,-0.001456544,0.09341384,0.995623898,-0.059880172,-0.030955507,9.786833452,-0.000717778,-0.012153144,0.002479359,-5.035637588,4.491172491,2.009072219,1162.294666,1124.746977,1114.528753,1124.977117,132.1259005,448.0855651,36.47304841,346.941755,158.4315503
3.445,0.229424994,0.198168761,0.275164761,-0.093054406,0.030579154,-0.001799237,0.001849125,-0.001440945,0.093380621,0.995627219,-0.063318419,-0.032651684,9.780553195,-0.000790335,-0.01224382,0.002307654,-5.035638698,4.491135746,2.009077805,1162.720727,1126.274219,1114.65312,1126.129789,142.6592552,620.3746788,78.94491396,480.4420181,158.4290339
3.4475,0.362603334,0.186460495,-0.044402007,-0.092515255,0.031300385,-0.001605707,0.001734114,-0.001426917,0.093337713,0.995631448,-0.066316365,-0.033748882,9.775155869,-0.00086838,-0.012323146,0.002113227,-5.035639009,4.491095941,2.009083546,1163.007962,1127.848851,1114.923477,1127.379327,63.09898557,626.5174901,159.512676,529.2284423,158.4268338
3.45,0.529673202,0.148099024,-0.31478348,-0.091871311,0.031993946,-0.004645385,0.001625175,-0.001419631,0.093294367,0.995635695,-0.068717596,-0.034107257,9.770718235,-0.000950907,-0.012387064,0.001900463,-5.035637224,4.491055371,2.009088715,1163.036222,1129.406806,1115.450684,1128.775931,-71.13095068,611.7849981,294.5472497,608.2329743,158.4245318
3.4525,0.800224716,0.077647029,-0.510945863,-0.090885381,0.032507943,-0.009419539,0.001530435,-0.00142021,0.093258759,0.995639183,-0.070453115,-0.03359252,9.76729947,-0.001037602,-0.012432855,0.001673799,-5.035633023,4.491015982,2.009093264,1162.652307,1130.907776,1116.396213,1130.420492,-211.4257769,448.6293416,390.8629609,569.3129827,158.4216577
3.455,1.098076051,0.006446361,-0.555064041,-0.089702939,0.032619897,-0.01248618,0.001454936,-0.001432749,0.093236701,0.99564136,-0.07140986,-0.032145752,9.764940149,-0.001128398,-0.012459171,0.001437649,-5.035626175,4.490979116,2.00909817,1161.979093,1131.649953,1117.404999,1131.622496,-326.0062068,160.5636262,429.6768917,418.5633923,158.4191736
3.4575,1.472429141,-0.067074843,-0.500934845,-0.087807338,0.032463251,-0.013722681,0.001395575,-0.001451521,0.093223919,0.995642639,-0.071689068,-0.02985648,9.763662275,-0.001222875,-0.012465853,0.001196335,-5.03561793,4.490944741,2.009103291,1161.022276,1131.710594,1118.544598,1132.513309,-407.0138352,-96.25510731,457.5292066,293.0722689,158.416602
3.46,1.897020734,-0.134960897,-0.39703574,-0.08506991,0.032024922,-0.013611432,0.001345363,-0.001466283,0.093214641,0.995643584,-0.071495072,-0.026887526,9.763468647,-0.001320037,-0.012453585,0.000954303,-5.035609961,4.490911565,2.009108079,1159.944024,1131.168677,1119.692645,1133.087857,-425.7765838,-349.8151108,433.8968895,151.9512904,158.4139614
3.4625,2.347422139,-0.189080095,-0.262209809,-0.080876382,0.0314033,-0.01286884,0.001302793,-0.001477209,0.093207456,0.995644328,-0.070828131,-0.023318509,9.764341967,-0.001418255,-0.012423588,0.000716436,-5.035603212,4.490879454,2.009112125,1158.893393,1129.961518,1120.714082,1133.273065,-408.7866273,-641.323514,385.0272585,2.14477159,158.4112415
3.465,2.852011316,-0.233394407,-0.074899359,-0.073464675,0.030680326,-0.012778728,0.001272654,-0.001483882,0.093201208,0.995644974,-0.069697473,-0.019108624,9.766245214,-0.00151523,-0.012377433,0.000488081,-5.035598739,4.490848506,2.009114327,1157.900091,1127.96206,1121.617781,1133.098581,-287.9153149,-775.4111523,255.9196673,-116.9843323,158.4078896
3.4675,3.187667059,-0.251952795,0.109337588,-0.065259592,0.030125724,-0.013604228,0.001258261,-0.001481975,0.093196039,0.995645512,-0.068200079,-0.014240685,9.769123002,-0.001608211,-0.012316837,0.00027473,-5.035596894,4.490818999,2.009113383,1157.453817,1126.084462,1121.993681,1132.688144,-69.12797479,-722.2029399,56.29735335,-201.224904,158.4050252
3.47,3.37803326,-0.250599693,0.328022719,-0.055667802,0.029555159,-0.014445293,0.001262316,-0.001477237,0.093195431,0.995645601,-0.066246816,-0.008729338,9.77290228,-0.001694303,-0.012243405,8.18E-05,-5.03559593,4.490791437,2.009109142,1157.554451,1124.351045,1121.899268,1132.092457,190.3490485,-643.1612638,-151.01297,-283.8922088,158.4020886
3.4725,3.401066874,-0.224407979,0.613016523,-0.043737626,0.028754793,-0.014112718,0.001284485,-0.001468611,0.093201395,0.995645049,-0.063895225,-0.002637431,9.777494639,-0.001770535,-0.01215836,-8.60E-05,-5.035595343,4.490765347,2.009102233,1158.405562,1122.868656,1121.238616,1131.268683,434.010497,-392.506229,-322.3364728,-306.0625983,158.3984817
3.475,3.246761558,-0.181407873,0.840852465,-0.034259865,0.027978476,-0.012202901,0.001320322,-0.001451295,0.093212263,0.995644021,-0.061291898,0.00389725,9.782798653,-0.001833854,-0.012062306,-0.000224806,-5.035596043,4.490739989,2.009093633,1159.724504,1122.388514,1120.287585,1130.562144,634.4247285,-1.496498996,-439.6564844,-273.1524304,158.3954068
3.4775,2.93742186,-0.118789838,1.019208668,-0.02620274,0.02724046,-0.008816386,0.00136039,-0.00142339,0.093227415,0.995642588,-0.058543607,0.010632029,9.788702517,-0.00188132,-0.011955048,-0.000332013,-5.035598674,4.490714494,2.009085104,1161.577686,1122.861174,1119.040333,1129.902921,800.5182544,346.1357521,-525.3888537,-249.1392328,158.3922588
3.48,2.532584527,-0.045821583,1.134793785,-0.019712471,0.026828374,-0.005019215,0.001397119,-0.0013801,0.093243311,0.995641098,-0.055817047,0.017362775,9.795086063,-0.001910222,-0.011835568,-0.00040624,-5.03560355,4.490687697,2.009077012,1163.727095,1124.119193,1117.660641,1129.316447,883.1189215,659.8367905,-555.1044514,-213.2465125,158.389049
3.4825,2.056837795,0.028129722,1.166158177,-0.015108343,0.027099593,-0.00174339,0.001427757,-0.0013185,0.093257586,0.995639782,-0.053238846,0.023972472,9.80182263,-0.00191849,-0.0117021,-0.000447106,-5.035610038,4.490659349,2.009069381,1165.99328,1126.160358,1116.264811,1128.836688,957.1612292,1005.952273,-585.7117324,-185.3344792,158.3857627
3.485,1.450526424,0.104533742,1.111693083,-0.011470795,0.027917466,0.001350379,0.001448171,-0.001242137,0.093271356,0.995638539,-0.050814597,0.030301494,9.808782359,-0.001905054,-0.011552315,-0.000455285,-5.035617042,4.49063,2.00906352,1168.512901,1129.148954,1114.732082,1128.389775,845.9417624,1120.281115,-522.7463594,-143.4685992,158.3817291
3.4875,0.935200764,0.153895915,0.995750203,-0.009432152,0.028633404,0.003694029,0.001455792,-0.001155895,0.093283704,0.995637456,-0.048522391,0.036214742,9.815834331,-0.001869903,-0.011383563,-0.00043224,-5.035623288,4.49059929,2.009060194,1170.222989,1131.761763,1113.651079,1128.119345,563.2950357,993.5552562,-385.7695288,-90.70868676,158.3782917
3.49,0.4151765,0.191568659,0.810815005,-0.007726113,0.029167933,0.006285156,0.001446162,-0.001061639,0.093292924,0.995636701,-0.046402192,0.041542657,9.822849736,-0.001814131,-0.011193131,-0.000379996,-5.03562776,4.490566497,2.009058866,1171.329376,1134.11673,1112.803235,1127.936232,325.4143555,905.6325811,-326.5827387,-68.35349272,158.3747749
3.4925,-0.215116997,0.232556048,0.516898921,-0.005942395,0.029593224,0.009595769,0.001426242,-0.000965818,0.093302376,0.995635936,-0.04437996,0.046328369,9.829700411,-0.001739939,-0.010978572,-0.00030051,-5.035629393,4.490532776,2.009058232,1171.850061,1136.289926,1112.018166,1127.777578,59.01059164,655.8736101,-259.5873647,-55.87395264,158.3704629
3.495,-0.736158903,0.269710617,0.229116908,-0.00547723,0.029859131,0.011757126,0.001406411,-0.000871928,0.093315654,0.995634803,-0.04242882,0.050687188,9.836262355,-0.001650226,-0.010738067,-0.000195692,-5.035627844,4.490498965,2.009057878,1171.624429,1137.396098,1111.505298,1127.656862,-203.5882445,284.4525373,-187.4916694,-56.2092662,158.3667934
3.4975,-1.218000155,0.313602275,-0.062506105,-0.007817712,0.030202479,0.011986996,0.001392081,-0.00078403,0.093335918,0.995632995,-0.040514845,0.054638074,9.842419015,-0.00154817,-0.010470674,-6.75E-05,-5.035623204,4.490465576,2.009058058,1170.832119,1137.712189,1111.080707,1127.496531,-381.3462495,6.16778373,-159.8205555,-77.55000132,158.363046
3.5,-1.630065981,0.361423287,-0.317923461,-0.012773045,0.030751545,0.01033919,0.001384651,-0.000707227,0.093367365,0.995630117,-0.038584897,0.058123323,9.848062528,-0.001436813,-0.010176484,8.20E-05,-5.03561577,4.490433324,2.00905774,1169.717698,1137.426937,1110.706195,1127.269112,-479.6505659,-226.5297518,-136.7961847,-112.5571632,158.3592354
3.5025,-1.924514304,0.407333309,-0.490866555,-0.01926044,0.031689619,0.0074911,0.001378688,-0.000641579,0.093407949,0.995626371,-0.036692705,0.060967318,9.853096158,-0.001318498,-0.009856721,0.000250598,-5.035607123,4.490402073,2.009056471,1168.433867,1136.57954,1110.396726,1126.933745,-547.2909052,-445.5746312,-113.9338865,-174.9004299,158.3553506
3.505,-2.136698721,0.449645124,-0.584054107,-0.02682838,0.033304924,0.004300289,0.001364603,-0.000584846,0.093451206,0.995622386,-0.034940255,0.062926463,9.857434591,-0.001194654,-0.00951376,0.000436034,-5.035598727,4.490371827,2.009055407,1166.981243,1135.199064,1110.136526,1126.39461,-483.3777545,-521.7822804,-70.75881653,-219.1173579,158.3506079
3.5075,-2.217807177,0.468936244,-0.575373165,-0.032383023,0.03488393,0.002368122,0.001336428,-0.000527505,0.093489875,0.995618858,-0.033560808,0.063853409,9.861003088,-0.00106583,-0.009151089,0.000635743,-5.035592383,4.490342837,2.009055323,1166.016978,1133.970629,1110.042932,1125.838159,-308.150354,-458.2167693,-8.59158664,-240.1099977,158.3465926
3.51,-2.240592535,0.47212535,-0.503752387,-0.037016255,0.036329034,0.001202433,0.001297696,-0.00047043,0.093522055,0.995615953,-0.032559648,0.063782158,9.863735079,-0.000931985,-0.008773202,0.00084717,-5.035588647,4.490315716,2.009056732,1165.440492,1132.90798,1110.093568,1125.19406,-154.803639,-382.8551979,50.18128413,-294.8742964,158.3425188
3.5125,-2.244185038,0.466244846,-0.380529488,-0.041882269,0.037492951,0.000267367,0.001249635,-0.000419363,0.093547621,0.99561367,-0.031845027,0.062708958,9.865576315,-0.000792739,-0.008385459,0.001067587,-5.035588106,4.49029054,2.009059789,1165.24296,1132.056353,1110.293839,1124.363787,3.916259962,-216.2920659,86.90242676,-306.2405147,158.3375726
3.515,-2.244627841,0.460959159,-0.269687414,-0.046141946,0.037957396,-0.000425558,0.001194501,-0.000379098,0.0935671,0.99561195,-0.031336638,0.060670196,9.866485058,-0.000647787,-0.007993862,0.001294286,-5.035590362,4.490267214,2.00906327,1165.460073,1131.82652,1110.52808,1123.662857,147.2678761,26.42758858,93.17195657,-273.3325507,158.333411
3.5175,-2.242143452,0.457693512,-0.174254513,-0.051008836,0.038482625,-0.000866996,0.00113592,-0.000352752,0.093583292,0.995610522,-0.030978879,0.057751473,9.866432639,-0.00049735,-0.00760483,0.001524639,-5.03559343,4.490245871,2.009066019,1165.979299,1132.18849,1110.759699,1122.997124,237.2919391,245.8392111,82.87314373,-255.3433381,158.32922
3.52,-2.226301919,0.450136617,-0.10826596,-0.056293377,0.039453463,-0.000871435,0.001077271,-0.000342049,0.093597455,0.995609264,-0.030738994,0.054056159,9.8654044,-0.00034237,-0.007225008,0.001755977,-5.035595468,4.490227032,2.009068321,1166.646533,1133.055716,1110.942446,1122.38614,272.8938918,454.3854749,55.03294723,-227.6181416,158.3250142
3.5225,-2.17671785,0.42502629,-0.094615818,-0.061977774,0.041000768,-0.000506956,0.001021878,-0.000344287,0.093612526,0.995607899,-0.030665196,0.049714165,9.86340037,-0.000184569,-0.006861065,0.001985432,-5.035595604,4.490211149,2.009070574,1167.343769,1134.460418,1111.034863,1121.859034,273.4531377,698.1106252,18.67901425,-210.4493374,158.3208033
3.525,-2.059588285,0.363201725,-0.150869774,-0.068811898,0.043053487,5.43E-06,0.000968203,-0.000356297,0.093629259,0.995606362,-0.030818425,0.044779655,9.86043642,-2.62E-05,-0.006519495,0.002209751,-5.0355944,4.490197857,2.009073327,1168.013798,1136.546269,1111.035841,1121.333894,190.0624363,783.0267404,-14.68970532,-173.6828501,158.31576
3.5275,-1.907825013,0.286035278,-0.257819656,-0.074135139,0.044421499,0.000284793,0.000912286,-0.000378104,0.093648743,0.995604559,-0.031194971,0.039270294,9.856543385,0.000130305,-0.006206385,0.002425295,-5.035592623,4.490187017,2.009077724,1168.294081,1138.375552,1110.961415,1120.990619,26.89451579,682.9017237,-38.16477127,-115.4321813,158.3115766
3.53,-1.702553306,0.19459033,-0.414213391,-0.078758674,0.045033956,0.000167141,0.000858384,-0.000409211,0.093673851,0.995602217,-0.031779666,0.033380392,9.851765047,0.000282223,-0.005927125,0.002628237,-5.035589452,4.490179064,2.009083341,1168.148271,1139.960778,1110.845017,1120.756733,-181.8419959,567.8833792,-49.56470055,-72.57635072,158.3074259
3.5325,-1.406948676,0.089197336,-0.628618054,-0.083433292,0.044692296,-0.000749649,0.000810053,-0.000444776,0.093703984,0.995599391,-0.032638517,0.027310129,9.846160567,0.000427024,-0.005686184,0.002814574,-5.035584575,4.490173932,2.009090028,1167.384871,1141.214968,1110.713591,1120.627738,-380.4769173,313.9656685,-37.33420226,-17.85946804,158.3024969
3.535,-1.132226088,0.016019505,-0.798954482,-0.086500466,0.043826243,-0.002395301,0.000770346,-0.000483689,0.093738383,0.995596154,-0.03375952,0.021250335,9.839803257,0.000562479,-0.005486829,0.002980222,-5.0355786,4.490171604,2.009097983,1166.245886,1141.530606,1110.658346,1120.667435,-548.0623941,-42.25250836,0.113423866,48.40326977,158.2984424
3.5375,-0.844530698,-0.042531137,-0.919796503,-0.088561473,0.043273699,-0.005124355,0.000742617,-0.000523285,0.093778737,0.995592347,-0.035155131,0.01540354,9.832780117,0.000686857,-0.005330828,0.003121147,-5.035572093,4.490171938,2.009106607,1164.644559,1141.003706,1110.714158,1120.869754,-697.8276592,-339.9896075,46.98706459,104.2146997,158.2944543
3.54,-0.556797474,-0.099357685,-0.972462406,-0.089956401,0.043346434,-0.008625806,0.000722438,-0.000561063,0.093821705,0.995588291,-0.036845462,0.009818696,9.825191876,0.000799151,-0.005218192,0.003233366,-5.035566694,4.490173242,2.009116176,1162.756748,1139.830658,1110.893281,1121.188509,-790.1502292,-587.5156558,104.4964043,143.1901065,158.2905293
3.5425,-0.277632364,-0.168864709,-0.924658995,-0.090899309,0.043642654,-0.012401419,0.000702601,-0.000600969,0.093862814,0.995584411,-0.038726381,0.004472933,9.817149793,0.000899043,-0.005146954,0.003313076,-5.035562168,4.490174212,2.009127219,1160.693808,1138.066128,1111.23664,1121.585705,-895.6201787,-845.2344084,185.7347721,169.6150996,158.2866898
3.545,0.039325116,-0.276913181,-0.75489832,-0.091513687,0.043793473,-0.016166322,0.000677916,-0.000640311,0.093901516,0.99558076,-0.040817092,-0.000615457,9.808774134,0.000986627,-0.005113097,0.003356875,-5.035557645,4.490173687,2.009140163,1158.278647,1135.604486,1111.821955,1122.036584,-836.2121624,-907.8599024,235.9893891,142.7349492,158.2821927
3.5475,0.280917186,-0.385729916,-0.541133385,-0.091400702,0.043861119,-0.018176053,0.000641231,-0.000672814,0.093934356,0.995577671,-0.043209086,-0.005474007,9.800192302,0.001062354,-0.005110737,0.003361958,-5.035553232,4.490169532,2.009155815,1156.512747,1133.526828,1112.416587,1122.299379,-615.4914384,-785.4019765,246.6188503,64.21594952,158.2785453
3.55,0.486030788,-0.499319661,-0.290798387,-0.090617245,0.043470028,-0.018941,0.000589725,-0.000693539,0.093962468,0.995575039,-0.045958323,-0.010066372,9.791535041,0.001126871,-0.00513249,0.003326472,-5.0355491,4.490161037,2.009172652,1155.20119,1131.677476,1113.055049,1122.357664,-430.2812461,-677.8430012,250.9512985,-16.246015,158.275011
3.5525,0.648421997,-0.595977517,-0.040760264,-0.089238953,0.042083863,-0.018842081,0.000524834,-0.000697871,0.09399093,0.995572388,-0.049106058,-0.014294965,9.782933959,0.001180857,-0.005170044,0.003249792,-5.035545324,4.490148517,2.009188672,1154.361341,1130.137613,1113.671344,1122.218149,-215.6373992,-529.8523349,228.2825455,-96.77273452,158.2715774
3.555,0.743319253,-0.642714137,0.177439943,-0.087035103,0.039413382,-0.01805487,0.000449957,-0.000687064,0.094019049,0.995569777,-0.052576775,-0.018057181,9.774518652,0.001224971,-0.00521478,0.003132522,-5.035541269,4.490132343,2.009202626,1154.123003,1129.028215,1114.196462,1121.873801,22.50391726,-389.1673222,200.1665202,-171.098567,158.2682729
3.5575,0.764708328,-0.61681565,0.372987729,-0.083465967,0.03572885,-0.016823726,0.000369684,-0.000663121,0.094045022,0.995567374,-0.056279485,-0.021252135,9.766414294,0.001259643,-0.005258354,0.002976347,-5.03553608,4.490112719,2.00921525,1154.47386,1128.191776,1114.672176,1121.362656,214.6012939,-229.4926219,149.1634794,-173.468081,158.2644663
3.56,0.706893805,-0.528781569,0.465969875,-0.080119216,0.033202266,-0.015646571,0.000292667,-0.000628405,0.094070975,0.995564973,-0.060109984,-0.023724186,9.758738524,0.001285004,-0.005293239,0.002783862,-5.035529151,4.490091393,2.009226338,1155.196009,1127.880751,1114.942279,1121.00646,345.6420819,-50.15306728,91.60982642,-91.06983293,158.2614333
3.5625,0.59533159,-0.396923197,0.47333262,-0.077511265,0.031785814,-0.013993544,0.000220229,-0.000585268,0.094096508,0.995562608,-0.063979807,-0.025481827,9.751599803,0.00130106,-0.005313182,0.002558281,-5.035521099,4.490069439,2.009235761,1156.202071,1127.941011,1115.130226,1120.907307,467.1322412,109.575402,81.49318445,43.30401101,158.2585522
3.565,0.455677276,-0.23275303,0.375878254,-0.076383189,0.031406504,-0.011321421,0.000151997,-0.000541964,0.094120114,0.995560414,-0.067691314,-0.026596626,9.745094127,0.001307857,-0.005313387,0.002303301,-5.035512727,4.49004793,2.009244102,1157.531671,1128.428628,1115.349745,1121.22298,478.8565324,248.2734807,91.11618734,190.070813,158.2552778
3.5675,0.380805549,-0.122773084,0.213034185,-0.077018345,0.031997873,-0.009092857,9.08E-05,-0.000506081,0.094141009,0.995558462,-0.071056471,-0.027092888,9.739302838,0.001305518,-0.005290516,0.002023063,-5.035504766,4.490028003,2.009251819,1158.596353,1129.182379,1115.585807,1121.857661,385.9490216,372.8508404,111.4333193,309.090761,158.2527054
3.57,0.387668844,-0.065976618,-0.00355508,-0.077926568,0.033090845,-0.008138244,3.97E-05,-0.000481755,0.094154743,0.995557171,-0.073957199,-0.026999122,9.734291156,0.001294294,-0.005242552,0.001722081,-5.035498022,4.490009936,2.009258879,1159.461416,1130.292883,1115.906912,1122.768434,294.4918449,497.7373801,138.8708207,379.1233628,158.2502985
3.5725,0.469374496,-0.057560158,-0.226966792,-0.078172996,0.03406313,-0.008821415,-4.08E-06,-0.000472733,0.094158916,0.995556769,-0.076296281,-0.026462765,9.73010711,0.001274462,-0.005168581,0.001405179,-5.035491433,4.489993083,2.009265257,1160.068812,1131.671065,1116.280161,1123.753278,167.2867255,597.9995141,148.1814693,366.2106927,158.2480299
3.575,0.626226857,-0.094288792,-0.410954054,-0.077669824,0.034098898,-0.011178648,-4.34E-05,-0.00047598,0.094157711,0.995556863,-0.078111321,-0.025629748,9.726780193,0.00124623,-0.005068546,0.001077566,-5.035484181,4.489977289,2.009269991,1160.297849,1133.28288,1116.647819,1124.599487,9.906392984,725.7170883,135.7837167,284.1056227,158.2459284
3.5775,0.861942437,-0.161492932,-0.545853545,-0.076340497,0.033019832,-0.014505664,-8.37E-05,-0.00048428,0.094153771,0.995557211,-0.079529326,-0.024689005,9.724320996,0.001209913,-0.004943088,0.000744743,-5.035476495,4.489961814,2.009272486,1160.118344,1135.299651,1116.959079,1125.173806,-133.7524272,719.6139099,73.7016488,104.4742421,158.2435981
3.58,1.058495142,-0.218454206,-0.580100653,-0.074204836,0.031789239,-0.016486019,-0.000130874,-0.000493223,0.094147685,0.995557763,-0.080628264,-0.023841509,9.722721077,0.001166068,-0.004793486,0.000412341,-5.035468617,4.489946187,2.009273137,1159.629087,1136.88095,1117.016328,1125.121859,-247.328504,573.0561995,-36.8309268,-154.4178878,158.2418135
3.5825,1.201356183,-0.266449687,-0.544454042,-0.070741658,0.030735634,-0.017167984,-0.000179662,-0.000498356,0.094144844,0.995558012,-0.081471581,-0.02307149,9.721952635,0.001115486,-0.004621696,8.61E-05,-5.035460122,4.489931385,2.009272046,1158.881702,1138.164932,1116.774925,1124.401717,-360.0833756,463.1789087,-183.6482883,-474.5827828,158.2401881
3.585,1.254848718,-0.315433834,-0.433708685,-0.065692251,0.029933161,-0.017703014,-0.000225095,-0.00049407,0.094148889,0.995557617,-0.082151354,-0.02235731,9.721970586,0.00105936,-0.004430367,-0.000228624,-5.035451147,4.489918201,2.009268776,1157.82867,1139.196844,1116.098086,1122.748945,-390.9976771,281.0377845,-307.5411306,-722.1526993,158.238417
3.5875,1.174595761,-0.353526185,-0.283984188,-0.061281252,0.029575133,-0.018853339,-0.000266285,-0.000483272,0.094162902,0.995556282,-0.082608906,-0.021763168,9.722714642,0.000999387,-0.004222731,-0.000526668,-5.035442211,4.489907585,2.009263323,1156.926714,1139.570121,1115.237219,1120.790953,-343.7228385,46.92835876,-385.5762025,-865.4716503,158.2370872
3.59,0.956428828,-0.390098995,-0.069522611,-0.057107792,0.029203439,-0.020598937,-0.000302273,-0.000466409,0.094185033,0.995554181,-0.082840674,-0.021335832,9.724111165,0.000937901,-0.004002354,-0.000803635,-5.035434118,4.48989942,2.009255457,1156.110056,1139.431486,1114.170205,1118.421587,-299.6126626,-132.6953413,-437.2992737,-976.1260694,158.2359055
3.5925,0.637378046,-0.420366947,0.193102943,-0.053619232,0.028576276,-0.022309872,-0.000335593,-0.000438853,0.094209472,0.995551866,-0.082955483,-0.021167007,9.726076117,0.000877886,-0.003772849,-0.00105594,-5.035428055,4.489892374,2.009245304,1155.42865,1138.906644,1113.050723,1115.910323,-229.6466954,-285.0712728,-427.6370037,-985.5978536,158.2348442
3.595,0.237221624,-0.430400232,0.482998581,-0.051744952,0.027452004,-0.023087683,-0.000367313,-0.000400995,0.094233659,0.995549578,-0.082969543,-0.021314669,9.728517637,0.00082276,-0.00353767,-0.001281078,-5.035423848,4.489885764,2.00923419,1154.961823,1138.00613,1112.03202,1113.493597,-150.1483868,-449.305471,-386.3978728,-979.0514047,158.2339251
3.5975,-0.261735832,-0.400996346,0.789142572,-0.052032959,0.025538465,-0.021396209,-0.000399372,-0.000348694,0.094253902,0.995547665,-0.08299562,-0.02182981,9.731339472,0.000776198,-0.003300016,-0.001477759,-5.035421256,4.489878209,2.009222959,1154.677908,1136.660117,1111.118733,1111.015066,-59.70781158,-505.8823115,-263.0462737,-803.9061327,158.2329834
3.6,-0.63384942,-0.333775076,0.943599281,-0.054537022,0.023749868,-0.017349662,-0.000435344,-0.000282859,0.094263669,0.995546749,-0.083058398,-0.022788479,9.734444418,0.000741856,-0.00306291,-0.001645949,-5.035420562,4.489868831,2.009211551,1154.663284,1135.476718,1110.716789,1109.474067,32.00852842,-443.2331369,-75.48501428,-483.5945819,158.2323309
3.6025,-0.904156202,-0.225149703,0.930810469,-0.058439011,0.02228385,-0.011748364,-0.000478203,-0.000214124,0.094256902,0.995547398,-0.082997882,-0.024256882,9.737737402,0.000723019,-0.00282943,-0.001786801,-5.035422502,4.489857887,2.009200957,1154.837951,1134.443951,1110.741308,1108.597093,104.5123496,-373.6123606,102.7536979,-226.2493366,158.2318133
3.605,-1.082396144,-0.068452437,0.705891108,-0.062970853,0.021352995,-0.005782872,-0.000526544,-0.000150255,0.094236955,0.995549293,-0.082703831,-0.026195201,9.741128225,0.000722216,-0.002602994,-0.001902493,-5.035427242,4.489847289,2.009191535,1155.185845,1133.608656,1111.230557,1108.34282,135.329677,-215.0364213,239.5140032,32.85572723,158.2313454
3.6075,-1.112540039,0.059631216,0.37709542,-0.066134084,0.021374381,-0.002805233,-0.000572926,-0.000100948,0.09420997,0.995551849,-0.082018508,-0.028434744,9.744534295,0.000740864,-0.002387447,-0.00199603,-5.035433652,4.489838905,2.009184356,1155.514599,1133.368769,1111.938878,1108.761372,118.8009889,10.73637577,316.7443184,281.5058929,158.2310811
3.61,-1.039844583,0.152825811,-0.019723591,-0.068552939,0.022143554,-0.002617374,-0.000611279,-6.83E-05,0.094179611,0.995554718,-0.080934209,-0.03080481,9.747883648,0.000779047,-0.002186882,-0.002070971,-5.035440814,4.489833323,2.00917899,1155.77985,1133.662338,1112.814279,1109.750349,80.18404915,201.9241856,353.9588234,474.3997136,158.2309444
3.6125,-0.899705298,0.196073656,-0.403685042,-0.070422168,0.023319856,-0.004563849,-0.000641884,-4.98E-05,0.094150176,0.995557488,-0.079537476,-0.033236929,9.75111718,0.000835377,-0.002005302,-0.002131137,-5.035447109,4.489830405,2.009173762,1155.91552,1134.37839,1113.708672,1111.13337,8.044238379,369.5453614,336.3593826,627.2062814,158.2309115
3.615,-0.694950232,0.163273437,-0.701271348,-0.071878132,0.02450145,-0.008158431,-0.000670266,-4.41E-05,0.094124865,0.995559852,-0.07790277,-0.035755229,9.754189752,0.000907048,-0.001846304,-0.002180416,-5.035451473,4.489829673,2.009168212,1155.820071,1135.510065,1114.496076,1112.886381,-105.5331777,555.0021561,296.1334287,825.9529927,158.2310011
3.6175,-0.387018539,0.030386396,-0.904817215,-0.073393527,0.025413687,-0.01302198,-0.000696058,-5.10E-05,0.094105843,0.995561604,-0.076061859,-0.038263524,9.757070146,0.000990086,-0.001712847,-0.002222704,-5.035452932,4.489831638,2.009161677,1155.387854,1137.153401,1115.189339,1115.263135,-209.5593806,613.0332277,200.5809328,890.3876129,158.2312468
3.62,-0.084140965,-0.153487005,-0.938362923,-0.074418119,0.025805115,-0.016644987,-0.000718996,-6.82E-05,0.094092792,0.995562777,-0.07407583,-0.040658606,9.759741771,0.00107977,-0.001606981,-0.002261985,-5.035451067,4.48983637,2.009154795,1154.772274,1138.575231,1115.49898,1117.338319,-284.38981,529.0946033,63.70667604,814.6686471,158.231564
3.6225,0.256987838,-0.398936301,-0.850893038,-0.074771113,0.025892987,-0.019344143,-0.000741919,-9.73E-05,0.094084828,0.995563457,-0.071931231,-0.042902304,9.762202386,0.00117111,-0.001529567,-0.002302407,-5.035445925,4.489843101,2.009149429,1153.965905,1139.798874,1115.507873,1119.336478,-367.915706,434.3686037,-57.9352927,823.4147487,158.2319946
3.625,0.68862261,-0.734376923,-0.65056456,-0.073826147,0.025072324,-0.021557156,-0.000770958,-0.000133643,0.094083632,0.995563486,-0.069729696,-0.045010918,9.764463346,0.001259404,-0.001480079,-0.002348156,-5.03543819,4.489850246,2.009145881,1152.932696,1140.747074,1115.209304,1121.455393,-363.046227,226.5485383,-147.4643081,709.925864,158.2326389
3.6275,1.044236242,-1.01565047,-0.440798991,-0.071616218,0.023146139,-0.022651192,-0.000814,-0.000169359,0.094095682,0.995562257,-0.067632792,-0.047034234,9.766548089,0.00134066,-0.001456549,-0.002403195,-5.035428521,4.489856776,2.009144175,1152.150673,1140.931616,1114.770551,1122.886108,-268.7113363,-72.90380368,-192.1077571,491.4073102,158.2332796
3.63,1.36715708,-1.253371701,-0.228298058,-0.068230427,0.019927702,-0.022959048,-0.000870456,-0.000206593,0.094124314,0.995559458,-0.065582511,-0.048884763,9.768489277,0.001411866,-0.001455669,-0.002470979,-5.035417765,4.489862631,2.009144502,1151.589139,1140.382555,1114.248765,1123.912429,-176.2695456,-336.2025316,-203.3192969,345.6152397,158.2340255
3.6325,1.64556727,-1.422800338,-0.04028108,-0.064238424,0.015946941,-0.022661302,-0.000925478,-0.000250019,0.094167364,0.995555305,-0.063440948,-0.050214195,9.770326317,0.001471211,-0.001472958,-0.002554111,-5.035406399,4.489867769,2.009146264,1151.269326,1139.250604,1113.753955,1124.614184,-69.80323643,-559.9165899,-169.8450878,215.2097299,158.2348569
3.635,1.85596129,-1.480756723,0.094453061,-0.059667465,0.011205016,-0.021902309,-0.000968961,-0.000300594,0.094216863,0.99555056,-0.061148262,-0.050774263,9.772103465,0.001518199,-0.001502826,-0.002654078,-5.03539538,4.489870679,2.009148896,1151.240123,1137.582972,1113.39954,1124.988478,37.26074937,-786.386458,-102.3638215,112.007733,158.2357897
3.6375,2.018721909,-1.404684374,0.17686998,-0.05380067,0.004971842,-0.020838793,-0.001001654,-0.000358757,0.094266408,0.995545829,-0.058673695,-0.050544241,9.773866583,0.001553572,-0.001538807,-0.002771052,-5.035385431,4.48986955,2.009152453,1151.455629,1135.318671,1113.242136,1125.174223,99.68034706,-810.7309134,-5.028667424,41.18103933,158.2370243
3.64,2.075739249,-1.229062083,0.175312441,-0.048786303,0.000177122,-0.019981325,-0.00102997,-0.000415812,0.094312328,0.995541452,-0.056176234,-0.049615917,9.775660088,0.00157916,-0.00157401,-0.002903689,-5.03537603,4.489865312,2.009155268,1151.738525,1133.529318,1113.374396,1125.194383,105.7568747,-619.8286378,106.0798496,-4.499908188,158.2381478
3.6425,2.049565541,-0.97608791,0.104114911,-0.043610977,-0.003085701,-0.019216819,-0.001053099,-0.000469674,0.094345542,0.995538283,-0.053677197,-0.047972061,9.777522542,0.001597581,-0.001601631,-0.003049109,-5.035367823,4.489859177,2.00915572,1151.984414,1132.219528,1113.772535,1125.151723,71.92899341,-394.2465529,220.194535,-26.28662929,158.2393684
3.645,1.923927834,-0.652279003,-0.048796096,-0.037387964,-0.00470383,-0.018479571,-0.001068058,-0.000522598,0.094359426,0.995536948,-0.051115234,-0.045580931,9.779483905,0.001611992,-0.001615302,-0.003203071,-5.035361818,4.489851734,2.009153933,1152.09817,1131.558085,1114.475369,1125.06295,2.226615048,-59.11015717,275.2576581,-42.19522249,158.240944
3.6475,1.746812623,-0.416205818,-0.216059286,-0.032693352,-0.004744961,-0.018161615,-0.001068812,-0.000576815,0.094356105,0.99553725,-0.048430537,-0.042370603,9.781563238,0.001625782,-0.001609316,-0.003360247,-5.035357452,4.489843729,2.009149581,1151.995547,1131.923977,1115.148823,1124.940747,-74.81408108,343.4527862,259.2417759,-71.46544767,158.2423482
3.65,1.507696388,-0.259543073,-0.395459406,-0.028879837,-0.004353006,-0.018520174,-0.001058601,-0.000630572,0.094336461,0.995539103,-0.0456664,-0.038459779,9.783767966,0.001642332,-0.001578615,-0.003514576,-5.035353768,4.489834662,2.009141534,1151.724099,1133.275349,1115.771578,1124.705623,-118.2699869,683.4944339,220.6150836,-125.6190203,158.2438455
3.6525,1.228552169,-0.18637307,-0.556579297,-0.025746106,-0.00386764,-0.019773419,-0.001048077,-0.000680036,0.094302208,0.995542338,-0.042928905,-0.034123032,9.786093228,0.001664792,-0.001518907,-0.003659694,-5.035349807,4.489823912,2.009129348,1151.404197,1135.34145,1116.251899,1124.312652,-109.007901,943.6497962,141.2668016,-209.7564157,158.2454187
3.655,0.913217534,-0.218111888,-0.6595796,-0.023180122,-0.003171751,-0.022140018,-0.001043506,-0.000718691,0.094262926,0.995546051,-0.040376333,-0.029557985,9.788521486,0.00169598,-0.001426964,-0.003789428,-5.035345275,4.489812048,2.009113125,1151.17906,1137.993598,1116.477912,1123.656841,-40.94988251,1199.474968,36.19812527,-359.8529866,158.2470817
3.6575,0.507456823,-0.361189453,-0.680663025,-0.020585472,-0.002452212,-0.025961463,-0.001046623,-0.000740072,0.094226839,0.995549471,-0.038165703,-0.024883659,9.791023156,0.001738394,-0.00130083,-0.003898366,-5.035340322,4.489799942,2.009094246,1151.199448,1141.338824,1116.432889,1122.513387,70.97649828,1165.322971,-57.87292845,-476.8363691,158.2491786
3.66,0.160643349,-0.538449382,-0.604617204,-0.018982643,-0.00260763,-0.029443645,-0.00105112,-0.000748589,0.094198822,0.99555214,-0.036234702,-0.020088244,9.793556861,0.001794173,-0.001139973,-0.003982348,-5.035335165,4.489789767,2.009073848,1151.533942,1143.820213,1116.188547,1121.272659,198.6928065,826.9565353,-110.7814177,-540.7613184,158.2510085
3.6625,-0.167972464,-0.722466727,-0.451178722,-0.018490054,-0.004102763,-0.031922133,-0.001052893,-0.000745171,0.094175796,0.995554351,-0.0345998,-0.015198391,9.796073892,0.00186526,-0.000945136,-0.004038743,-5.035330569,4.48978178,2.009052346,1152.192912,1145.473607,1115.878982,1119.80958,344.2195252,450.8584114,-103.580475,-662.6615827,158.2529216
3.665,-0.496020908,-0.879446871,-0.233611473,-0.019767823,-0.007584814,-0.032236981,-0.001050904,-0.000730366,0.094152359,0.995556615,-0.033295593,-0.010298633,9.798521246,0.001953352,-0.000718112,-0.004066642,-5.03532772,4.489775462,2.009030118,1153.25504,1146.074505,1115.670645,1117.959351,415.1615544,-34.39218598,-14.41963247,-663.545437,158.2553106
3.6675,-0.679147169,-0.911560676,-0.069877685,-0.022092616,-0.011483131,-0.030613832,-0.001044192,-0.000713618,0.094130249,0.995558759,-0.032185102,-0.005487928,9.800843843,0.002059668,-0.000461546,-0.004066993,-5.035326442,4.489770883,2.00900861,1154.268719,1145.301646,1115.806884,1116.491853,414.9239426,-549.40569,148.6189531,-532.4280941,158.2573772
3.67,-0.737005964,-0.810127105,0.043288742,-0.025016682,-0.015298747,-0.028830342,-0.001033142,-0.000700878,0.094110323,0.995560691,-0.031202493,-0.000878038,9.802989252,0.002184853,-0.000178687,-0.00404253,-5.035326489,4.489767702,2.008989493,1155.32966,1143.327476,1116.41374,1115.29721,428.0700536,-934.781776,328.1387705,-407.5428946,158.2595206
3.6725,-0.680665282,-0.5969591,0.114623287,-0.028171779,-0.01833908,-0.027952294,-0.001018774,-0.000699149,0.09409072,0.995562579,-0.030261283,0.003414718,9.804910405,0.002328723,0.0001268,-0.003997542,-5.035327755,4.489765726,2.008974303,1156.40907,1140.627737,1117.447578,1114.454139,440.6867226,-1160.34316,504.2746352,-236.8050942,158.2617262
3.675,-0.49464191,-0.271449294,0.154540158,-0.03126224,-0.020119361,-0.028346217,-0.001000558,-0.000709911,0.094068437,0.995564705,-0.029375918,0.007326259,9.806568614,0.002490103,0.000450931,-0.00393738,-5.035330124,4.489764902,2.008963399,1157.533093,1137.525761,1118.935113,1114.113185,514.2210914,-1325.099678,720.6371752,-40.30890036,158.2640054
3.6775,-0.162981032,0.200316983,0.188653908,-0.033918473,-0.02065625,-0.02923356,-0.000976698,-0.000732546,0.094046033,0.99556683,-0.028592063,0.010833869,9.807935284,0.002666633,0.000789479,-0.003867872,-5.035331727,4.489765502,2.008956006,1158.980175,1134.002239,1121.050764,1114.252594,548.9481119,-1171.949223,791.8540929,119.1879596,158.2668236
3.68,0.151298413,0.617610143,0.208508109,-0.034188762,-0.01966835,-0.028991954,-0.000949554,-0.000767537,0.094028288,0.995568502,-0.027932219,0.013845809,9.808993788,0.002854716,0.001138101,-0.00379476,-5.035331306,4.489767995,2.008951618,1160.277834,1131.666014,1122.894383,1114.709125,527.9557287,-736.0925262,703.4353054,210.6042835,158.2692404
3.6825,0.428632137,1.005870104,0.210953649,-0.031915514,-0.017065224,-0.027312552,-0.000922799,-0.000806652,0.094017202,0.995569531,-0.027581194,0.016276322,9.809740583,0.003049759,0.001492411,-0.003723152,-5.035328607,4.489772321,2.008948901,1161.619954,1130.321776,1124.56794,1115.305616,572.8227256,-326.5699063,642.8884629,241.0839463,158.2717266
3.685,0.644565234,1.38288316,0.19371537,-0.027694898,-0.012376022,-0.025396503,-0.000901599,-0.000843102,0.094010999,0.995570087,-0.027686907,0.018023626,9.810183994,0.003246369,0.001848081,-0.003657238,-5.035323689,4.489778017,2.008947193,1163.141948,1130.033165,1126.108826,1115.914544,516.4653274,106.5297539,456.5584003,173.3316741,158.2747888
3.6875,0.699982464,1.594489273,0.178834686,-0.024284127,-0.007767832,-0.025003345,-0.000890232,-0.000872905,0.094008058,0.995570323,-0.028327665,0.019013381,9.810342733,0.00343867,0.002200844,-0.003600106,-5.035315847,4.489784943,2.008946209,1164.20228,1130.854425,1126.850732,1116.172274,348.8488833,504.4620566,163.1519743,30.5278709,158.2774042
3.69,0.627979827,1.68346366,0.19183703,-0.021768501,-0.003172564,-0.025943009,-0.000887861,-0.000892942,0.094011614,0.99556994,-0.029541438,0.019283637,9.81024393,0.003620712,0.002546425,-0.003553673,-5.035304032,4.489793754,2.008943721,1164.886192,1132.555475,1126.924586,1116.067184,191.8405623,774.6966035,-84.51313515,-100.9634043,158.2800827
3.6925,0.469641867,1.669809758,0.241091446,-0.020100588,0.001186896,-0.027402528,-0.000893591,-0.000906847,0.094022641,0.995568849,-0.031221997,0.018874944,9.809921872,0.003786904,0.002880644,-0.003518816,-5.035288667,4.489804963,2.008938365,1165.161483,1134.727908,1126.428167,1115.667457,-1.141601059,909.4947218,-326.3943492,-209.2768176,158.2828107
3.695,0.240298861,1.538942609,0.324530625,-0.019344684,0.005338069,-0.028125162,-0.000905822,-0.0009227,0.094044386,0.995566745,-0.033163483,0.017845157,9.809416534,0.003932584,0.003199467,-0.003495699,-5.035270835,4.489819233,2.008930284,1164.880484,1137.102949,1125.292614,1115.0208,-250.1325502,1000.004697,-620.7624106,-295.1005685,158.2855944
3.6975,-0.072446799,1.2611173,0.419555536,-0.019325008,0.010029824,-0.026412073,-0.000918568,-0.000941979,0.094079439,0.995563391,-0.035271976,0.016360038,9.808772333,0.004054547,0.003499205,-0.003484153,-5.035252322,4.489837489,2.008919893,1163.91082,1139.727932,1123.324354,1114.191954,-444.1009083,870.033015,-794.5357675,-273.5654211,158.2889933
3.7,-0.333810623,0.945741696,0.455828684,-0.019992816,0.013445548,-0.023203444,-0.000930968,-0.000963716,0.094121256,0.995559407,-0.037506071,0.014498106,9.8080378,0.004151218,0.00377702,-0.003484013,-5.03523548,4.489859484,2.008909006,1162.659979,1141.453114,1121.319935,1113.652972,-555.2251598,551.7176338,-835.0286921,-143.2302368,158.2918693
